accel_x,accel_y,accel_z,gyro_x,gyro_y,gyro_z
8.969093249999999795e-01,-3.527212650000000060e-01,-3.100577999999999945e-01,-2.594199999999999839e-01,1.709119999999999973e+00,-3.051999999999999852e-02
8.969093249999999795e-01,-3.527212650000000060e-01,-3.100577999999999945e-01,-2.594199999999999839e-01,1.709119999999999973e+00,-3.051999999999999852e-02
8.969093249999999795e-01,-3.527212650000000060e-01,-3.100577999999999945e-01,-2.594199999999999839e-01,1.709119999999999973e+00,-3.051999999999999852e-02
8.969093249999999795e-01,-3.527212650000000060e-01,-3.100577999999999945e-01,-2.594199999999999839e-01,1.709119999999999973e+00,-3.051999999999999852e-02
8.969093249999999795e-01,-3.527212650000000060e-01,-3.100577999999999945e-01,-2.594199999999999839e-01,1.709119999999999973e+00,-3.051999999999999852e-02
8.969093249999999795e-01,-3.527212650000000060e-01,-3.100577999999999945e-01,-2.594199999999999839e-01,1.709119999999999973e+00,-3.051999999999999852e-02
8.973976049999999871e-01,-3.513174600000000258e-01,-3.096305550000000295e-01,8.545599999999999863e-01,1.739639999999999853e+00,-6.103999999999999704e-02
8.973976049999999871e-01,-3.513174600000000258e-01,-3.096305550000000295e-01,8.545599999999999863e-01,1.739639999999999853e+00,-6.103999999999999704e-02
8.973976049999999871e-01,-3.513174600000000258e-01,-3.096305550000000295e-01,8.545599999999999863e-01,1.739639999999999853e+00,-6.103999999999999704e-02
8.973976049999999871e-01,-3.513174600000000258e-01,-3.096305550000000295e-01,8.545599999999999863e-01,1.739639999999999853e+00,-6.103999999999999704e-02
8.973976049999999871e-01,-3.513174600000000258e-01,-3.096305550000000295e-01,8.545599999999999863e-01,1.739639999999999853e+00,-6.103999999999999704e-02
8.973976049999999871e-01,-3.513174600000000258e-01,-3.096305550000000295e-01,8.545599999999999863e-01,1.739639999999999853e+00,-6.103999999999999704e-02
8.973976049999999871e-01,-3.513174600000000258e-01,-3.096305550000000295e-01,8.545599999999999863e-01,1.739639999999999853e+00,-6.103999999999999704e-02
8.973976049999999871e-01,-3.513174600000000258e-01,-3.096305550000000295e-01,8.545599999999999863e-01,1.739639999999999853e+00,-6.103999999999999704e-02
8.973976049999999871e-01,-3.513174600000000258e-01,-3.096305550000000295e-01,8.545599999999999863e-01,1.739639999999999853e+00,-6.103999999999999704e-02
8.973976049999999871e-01,-3.513174600000000258e-01,-3.096305550000000295e-01,8.545599999999999863e-01,1.739639999999999853e+00,-6.103999999999999704e-02
8.957496600000000031e-01,-3.482657100000000061e-01,-3.085319249999999847e-01,-1.800679999999999836e+00,1.068200000000000038e+00,5.798799999999999510e-01
8.957496600000000031e-01,-3.482657100000000061e-01,-3.085319249999999847e-01,-1.800679999999999836e+00,1.068200000000000038e+00,5.798799999999999510e-01
8.957496600000000031e-01,-3.482657100000000061e-01,-3.085319249999999847e-01,-1.800679999999999836e+00,1.068200000000000038e+00,5.798799999999999510e-01
8.957496600000000031e-01,-3.482657100000000061e-01,-3.085319249999999847e-01,-1.800679999999999836e+00,1.068200000000000038e+00,5.798799999999999510e-01
8.957496600000000031e-01,-3.482657100000000061e-01,-3.085319249999999847e-01,-1.800679999999999836e+00,1.068200000000000038e+00,5.798799999999999510e-01
8.957496600000000031e-01,-3.482657100000000061e-01,-3.085319249999999847e-01,-1.800679999999999836e+00,1.068200000000000038e+00,5.798799999999999510e-01
8.957496600000000031e-01,-3.482657100000000061e-01,-3.085319249999999847e-01,-1.800679999999999836e+00,1.068200000000000038e+00,5.798799999999999510e-01
8.957496600000000031e-01,-3.482657100000000061e-01,-3.085319249999999847e-01,-1.800679999999999836e+00,1.068200000000000038e+00,5.798799999999999510e-01
8.957496600000000031e-01,-3.482657100000000061e-01,-3.085319249999999847e-01,-1.800679999999999836e+00,1.068200000000000038e+00,5.798799999999999510e-01
8.957496600000000031e-01,-3.482657100000000061e-01,-3.085319249999999847e-01,-1.800679999999999836e+00,1.068200000000000038e+00,5.798799999999999510e-01
8.955665550000000419e-01,-3.487539900000000137e-01,-3.088371000000000310e-01,-2.487379999999999924e+00,3.051999999999999713e-01,0.000000000000000000e+00
8.955665550000000419e-01,-3.487539900000000137e-01,-3.088371000000000310e-01,-2.487379999999999924e+00,3.051999999999999713e-01,0.000000000000000000e+00
8.955665550000000419e-01,-3.487539900000000137e-01,-3.088371000000000310e-01,-2.487379999999999924e+00,3.051999999999999713e-01,0.000000000000000000e+00
8.955665550000000419e-01,-3.487539900000000137e-01,-3.088371000000000310e-01,-2.487379999999999924e+00,3.051999999999999713e-01,0.000000000000000000e+00
8.955665550000000419e-01,-3.487539900000000137e-01,-3.088371000000000310e-01,-2.487379999999999924e+00,3.051999999999999713e-01,0.000000000000000000e+00
8.955665550000000419e-01,-3.487539900000000137e-01,-3.088371000000000310e-01,-2.487379999999999924e+00,3.051999999999999713e-01,0.000000000000000000e+00
8.955665550000000419e-01,-3.487539900000000137e-01,-3.088371000000000310e-01,-2.487379999999999924e+00,3.051999999999999713e-01,0.000000000000000000e+00
8.955665550000000419e-01,-3.487539900000000137e-01,-3.088371000000000310e-01,-2.487379999999999924e+00,3.051999999999999713e-01,0.000000000000000000e+00
8.955665550000000419e-01,-3.487539900000000137e-01,-3.088371000000000310e-01,-2.487379999999999924e+00,3.051999999999999713e-01,0.000000000000000000e+00
8.955665550000000419e-01,-3.487539900000000137e-01,-3.088371000000000310e-01,-2.487379999999999924e+00,3.051999999999999713e-01,0.000000000000000000e+00
8.980689900000000669e-01,-3.533316149999999878e-01,-3.101188349999999816e-01,-1.876979999999999871e+00,7.630000000000000115e-01,-7.324800000000000200e-01
8.980689900000000669e-01,-3.533316149999999878e-01,-3.101188349999999816e-01,-1.876979999999999871e+00,7.630000000000000115e-01,-7.324800000000000200e-01
8.980689900000000669e-01,-3.533316149999999878e-01,-3.101188349999999816e-01,-1.876979999999999871e+00,7.630000000000000115e-01,-7.324800000000000200e-01
8.980689900000000669e-01,-3.533316149999999878e-01,-3.101188349999999816e-01,-1.876979999999999871e+00,7.630000000000000115e-01,-7.324800000000000200e-01
8.980689900000000669e-01,-3.533316149999999878e-01,-3.101188349999999816e-01,-1.876979999999999871e+00,7.630000000000000115e-01,-7.324800000000000200e-01
8.980689900000000669e-01,-3.533316149999999878e-01,-3.101188349999999816e-01,-1.876979999999999871e+00,7.630000000000000115e-01,-7.324800000000000200e-01
8.980689900000000669e-01,-3.533316149999999878e-01,-3.101188349999999816e-01,-1.876979999999999871e+00,7.630000000000000115e-01,-7.324800000000000200e-01
8.980689900000000669e-01,-3.533316149999999878e-01,-3.101188349999999816e-01,-1.876979999999999871e+00,7.630000000000000115e-01,-7.324800000000000200e-01
8.980689900000000669e-01,-3.533316149999999878e-01,-3.101188349999999816e-01,-1.876979999999999871e+00,7.630000000000000115e-01,-7.324800000000000200e-01
8.980689900000000669e-01,-3.533316149999999878e-01,-3.101188349999999816e-01,-1.876979999999999871e+00,7.630000000000000115e-01,-7.324800000000000200e-01
9.011817749999999627e-01,-3.555899100000000090e-01,-3.123771300000000029e-01,-7.172199999999999687e-01,1.190280000000000005e+00,-7.935200000000000031e-01
9.011817749999999627e-01,-3.555899100000000090e-01,-3.123771300000000029e-01,-7.172199999999999687e-01,1.190280000000000005e+00,-7.935200000000000031e-01
9.011817749999999627e-01,-3.555899100000000090e-01,-3.123771300000000029e-01,-7.172199999999999687e-01,1.190280000000000005e+00,-7.935200000000000031e-01
9.011817749999999627e-01,-3.555899100000000090e-01,-3.123771300000000029e-01,-7.172199999999999687e-01,1.190280000000000005e+00,-7.935200000000000031e-01
9.011817749999999627e-01,-3.555899100000000090e-01,-3.123771300000000029e-01,-7.172199999999999687e-01,1.190280000000000005e+00,-7.935200000000000031e-01
9.011817749999999627e-01,-3.555899100000000090e-01,-3.123771300000000029e-01,-7.172199999999999687e-01,1.190280000000000005e+00,-7.935200000000000031e-01
9.011817749999999627e-01,-3.555899100000000090e-01,-3.123771300000000029e-01,-7.172199999999999687e-01,1.190280000000000005e+00,-7.935200000000000031e-01
9.011817749999999627e-01,-3.555899100000000090e-01,-3.123771300000000029e-01,-7.172199999999999687e-01,1.190280000000000005e+00,-7.935200000000000031e-01
9.011817749999999627e-01,-3.555899100000000090e-01,-3.123771300000000029e-01,-7.172199999999999687e-01,1.190280000000000005e+00,-7.935200000000000031e-01
9.011817749999999627e-01,-3.555899100000000090e-01,-3.123771300000000029e-01,-7.172199999999999687e-01,1.190280000000000005e+00,-7.935200000000000031e-01
9.060645750000000387e-01,-3.514395300000000000e-01,-3.137198999999999960e-01,7.019599999999999174e-01,1.815939999999999888e+00,-7.630000000000000115e-01
9.060645750000000387e-01,-3.514395300000000000e-01,-3.137198999999999960e-01,7.019599999999999174e-01,1.815939999999999888e+00,-7.630000000000000115e-01
9.060645750000000387e-01,-3.514395300000000000e-01,-3.137198999999999960e-01,7.019599999999999174e-01,1.815939999999999888e+00,-7.630000000000000115e-01
9.060645750000000387e-01,-3.514395300000000000e-01,-3.137198999999999960e-01,7.019599999999999174e-01,1.815939999999999888e+00,-7.630000000000000115e-01
9.060645750000000387e-01,-3.514395300000000000e-01,-3.137198999999999960e-01,7.019599999999999174e-01,1.815939999999999888e+00,-7.630000000000000115e-01
9.060645750000000387e-01,-3.514395300000000000e-01,-3.137198999999999960e-01,7.019599999999999174e-01,1.815939999999999888e+00,-7.630000000000000115e-01
9.060645750000000387e-01,-3.514395300000000000e-01,-3.137198999999999960e-01,7.019599999999999174e-01,1.815939999999999888e+00,-7.630000000000000115e-01
9.060645750000000387e-01,-3.514395300000000000e-01,-3.137198999999999960e-01,7.019599999999999174e-01,1.815939999999999888e+00,-7.630000000000000115e-01
9.060645750000000387e-01,-3.514395300000000000e-01,-3.137198999999999960e-01,7.019599999999999174e-01,1.815939999999999888e+00,-7.630000000000000115e-01
9.060645750000000387e-01,-3.514395300000000000e-01,-3.137198999999999960e-01,7.019599999999999174e-01,1.815939999999999888e+00,-7.630000000000000115e-01
9.041114550000000083e-01,-3.453360300000000160e-01,-3.112785000000000135e-01,6.714399999999999258e-01,2.594199999999999839e+00,3.051999999999999852e-02
9.041114550000000083e-01,-3.453360300000000160e-01,-3.112785000000000135e-01,6.714399999999999258e-01,2.594199999999999839e+00,3.051999999999999852e-02
9.041114550000000083e-01,-3.453360300000000160e-01,-3.112785000000000135e-01,6.714399999999999258e-01,2.594199999999999839e+00,3.051999999999999852e-02
9.041114550000000083e-01,-3.453360300000000160e-01,-3.112785000000000135e-01,6.714399999999999258e-01,2.594199999999999839e+00,3.051999999999999852e-02
9.041114550000000083e-01,-3.453360300000000160e-01,-3.112785000000000135e-01,6.714399999999999258e-01,2.594199999999999839e+00,3.051999999999999852e-02
9.041114550000000083e-01,-3.453360300000000160e-01,-3.112785000000000135e-01,6.714399999999999258e-01,2.594199999999999839e+00,3.051999999999999852e-02
9.041114550000000083e-01,-3.453360300000000160e-01,-3.112785000000000135e-01,6.714399999999999258e-01,2.594199999999999839e+00,3.051999999999999852e-02
9.041114550000000083e-01,-3.453360300000000160e-01,-3.112785000000000135e-01,6.714399999999999258e-01,2.594199999999999839e+00,3.051999999999999852e-02
9.041114550000000083e-01,-3.453360300000000160e-01,-3.112785000000000135e-01,6.714399999999999258e-01,2.594199999999999839e+00,3.051999999999999852e-02
9.041114550000000083e-01,-3.453360300000000160e-01,-3.112785000000000135e-01,6.714399999999999258e-01,2.594199999999999839e+00,3.051999999999999852e-02
8.933692950000000632e-01,-3.441763649999999841e-01,-3.105460800000000021e-01,-2.334779999999999855e+00,8.850799999999999779e-01,1.724380000000000024e+00
8.933692950000000632e-01,-3.441763649999999841e-01,-3.105460800000000021e-01,-2.334779999999999855e+00,8.850799999999999779e-01,1.724380000000000024e+00
8.933692950000000632e-01,-3.441763649999999841e-01,-3.105460800000000021e-01,-2.334779999999999855e+00,8.850799999999999779e-01,1.724380000000000024e+00
8.933692950000000632e-01,-3.441763649999999841e-01,-3.105460800000000021e-01,-2.334779999999999855e+00,8.850799999999999779e-01,1.724380000000000024e+00
8.933692950000000632e-01,-3.441763649999999841e-01,-3.105460800000000021e-01,-2.334779999999999855e+00,8.850799999999999779e-01,1.724380000000000024e+00
8.933692950000000632e-01,-3.441763649999999841e-01,-3.105460800000000021e-01,-2.334779999999999855e+00,8.850799999999999779e-01,1.724380000000000024e+00
8.933692950000000632e-01,-3.441763649999999841e-01,-3.105460800000000021e-01,-2.334779999999999855e+00,8.850799999999999779e-01,1.724380000000000024e+00
8.933692950000000632e-01,-3.441763649999999841e-01,-3.105460800000000021e-01,-2.334779999999999855e+00,8.850799999999999779e-01,1.724380000000000024e+00
8.933692950000000632e-01,-3.441763649999999841e-01,-3.105460800000000021e-01,-2.334779999999999855e+00,8.850799999999999779e-01,1.724380000000000024e+00
8.933692950000000632e-01,-3.441763649999999841e-01,-3.105460800000000021e-01,-2.334779999999999855e+00,8.850799999999999779e-01,1.724380000000000024e+00
8.879982149999999796e-01,-3.462515549999999886e-01,-3.102409050000000112e-01,-1.892239999999999922e+00,1.175019999999999953e+00,2.899399999999999755e-01
8.879982149999999796e-01,-3.462515549999999886e-01,-3.102409050000000112e-01,-1.892239999999999922e+00,1.175019999999999953e+00,2.899399999999999755e-01
8.879982149999999796e-01,-3.462515549999999886e-01,-3.102409050000000112e-01,-1.892239999999999922e+00,1.175019999999999953e+00,2.899399999999999755e-01
8.879982149999999796e-01,-3.462515549999999886e-01,-3.102409050000000112e-01,-1.892239999999999922e+00,1.175019999999999953e+00,2.899399999999999755e-01
8.879982149999999796e-01,-3.462515549999999886e-01,-3.102409050000000112e-01,-1.892239999999999922e+00,1.175019999999999953e+00,2.899399999999999755e-01
8.879982149999999796e-01,-3.462515549999999886e-01,-3.102409050000000112e-01,-1.892239999999999922e+00,1.175019999999999953e+00,2.899399999999999755e-01
8.879982149999999796e-01,-3.462515549999999886e-01,-3.102409050000000112e-01,-1.892239999999999922e+00,1.175019999999999953e+00,2.899399999999999755e-01
8.879982149999999796e-01,-3.462515549999999886e-01,-3.102409050000000112e-01,-1.892239999999999922e+00,1.175019999999999953e+00,2.899399999999999755e-01
8.879982149999999796e-01,-3.462515549999999886e-01,-3.102409050000000112e-01,-1.892239999999999922e+00,1.175019999999999953e+00,2.899399999999999755e-01
8.879982149999999796e-01,-3.462515549999999886e-01,-3.102409050000000112e-01,-1.892239999999999922e+00,1.175019999999999953e+00,2.899399999999999755e-01
8.914772100000000199e-01,-3.484488150000000228e-01,-3.115836750000000044e-01,-2.639979999999999993e+00,6.103999999999999426e-01,1.648079999999999989e+00
8.914772100000000199e-01,-3.484488150000000228e-01,-3.115836750000000044e-01,-2.639979999999999993e+00,6.103999999999999426e-01,1.648079999999999989e+00
8.914772100000000199e-01,-3.484488150000000228e-01,-3.115836750000000044e-01,-2.639979999999999993e+00,6.103999999999999426e-01,1.648079999999999989e+00
8.914772100000000199e-01,-3.484488150000000228e-01,-3.115836750000000044e-01,-2.639979999999999993e+00,6.103999999999999426e-01,1.648079999999999989e+00
8.914772100000000199e-01,-3.484488150000000228e-01,-3.115836750000000044e-01,-2.639979999999999993e+00,6.103999999999999426e-01,1.648079999999999989e+00
8.914772100000000199e-01,-3.484488150000000228e-01,-3.115836750000000044e-01,-2.639979999999999993e+00,6.103999999999999426e-01,1.648079999999999989e+00
8.914772100000000199e-01,-3.484488150000000228e-01,-3.115836750000000044e-01,-2.639979999999999993e+00,6.103999999999999426e-01,1.648079999999999989e+00
8.914772100000000199e-01,-3.484488150000000228e-01,-3.115836750000000044e-01,-2.639979999999999993e+00,6.103999999999999426e-01,1.648079999999999989e+00
8.914772100000000199e-01,-3.484488150000000228e-01,-3.115836750000000044e-01,-2.639979999999999993e+00,6.103999999999999426e-01,1.648079999999999989e+00
8.914772100000000199e-01,-3.484488150000000228e-01,-3.115836750000000044e-01,-2.639979999999999993e+00,6.103999999999999426e-01,1.648079999999999989e+00
8.954444850000000677e-01,-3.511343550000000091e-01,-3.109122899999999801e-01,-3.372459999999999791e+00,1.770159999999999956e+00,1.648079999999999989e+00
8.954444850000000677e-01,-3.511343550000000091e-01,-3.109122899999999801e-01,-3.372459999999999791e+00,1.770159999999999956e+00,1.648079999999999989e+00
8.954444850000000677e-01,-3.511343550000000091e-01,-3.109122899999999801e-01,-3.372459999999999791e+00,1.770159999999999956e+00,1.648079999999999989e+00
8.954444850000000677e-01,-3.511343550000000091e-01,-3.109122899999999801e-01,-3.372459999999999791e+00,1.770159999999999956e+00,1.648079999999999989e+00
8.954444850000000677e-01,-3.511343550000000091e-01,-3.109122899999999801e-01,-3.372459999999999791e+00,1.770159999999999956e+00,1.648079999999999989e+00
8.954444850000000677e-01,-3.511343550000000091e-01,-3.109122899999999801e-01,-3.372459999999999791e+00,1.770159999999999956e+00,1.648079999999999989e+00
8.954444850000000677e-01,-3.511343550000000091e-01,-3.109122899999999801e-01,-3.372459999999999791e+00,1.770159999999999956e+00,1.648079999999999989e+00
8.954444850000000677e-01,-3.511343550000000091e-01,-3.109122899999999801e-01,-3.372459999999999791e+00,1.770159999999999956e+00,1.648079999999999989e+00
8.954444850000000677e-01,-3.511343550000000091e-01,-3.109122899999999801e-01,-3.372459999999999791e+00,1.770159999999999956e+00,1.648079999999999989e+00
8.954444850000000677e-01,-3.511343550000000091e-01,-3.109122899999999801e-01,-3.372459999999999791e+00,1.770159999999999956e+00,1.648079999999999989e+00
8.949562050000000601e-01,-3.530264399999999969e-01,-3.082877849999999809e-01,-1.938019999999999854e+00,3.662400000000000100e-01,1.663339999999999819e+00
8.949562050000000601e-01,-3.530264399999999969e-01,-3.082877849999999809e-01,-1.938019999999999854e+00,3.662400000000000100e-01,1.663339999999999819e+00
8.949562050000000601e-01,-3.530264399999999969e-01,-3.082877849999999809e-01,-1.938019999999999854e+00,3.662400000000000100e-01,1.663339999999999819e+00
8.949562050000000601e-01,-3.530264399999999969e-01,-3.082877849999999809e-01,-1.938019999999999854e+00,3.662400000000000100e-01,1.663339999999999819e+00
8.949562050000000601e-01,-3.530264399999999969e-01,-3.082877849999999809e-01,-1.938019999999999854e+00,3.662400000000000100e-01,1.663339999999999819e+00
8.949562050000000601e-01,-3.530264399999999969e-01,-3.082877849999999809e-01,-1.938019999999999854e+00,3.662400000000000100e-01,1.663339999999999819e+00
8.949562050000000601e-01,-3.530264399999999969e-01,-3.082877849999999809e-01,-1.938019999999999854e+00,3.662400000000000100e-01,1.663339999999999819e+00
8.949562050000000601e-01,-3.530264399999999969e-01,-3.082877849999999809e-01,-1.938019999999999854e+00,3.662400000000000100e-01,1.663339999999999819e+00
8.949562050000000601e-01,-3.530264399999999969e-01,-3.082877849999999809e-01,-1.938019999999999854e+00,3.662400000000000100e-01,1.663339999999999819e+00
8.949562050000000601e-01,-3.530264399999999969e-01,-3.082877849999999809e-01,-1.938019999999999854e+00,3.662400000000000100e-01,1.663339999999999819e+00
8.958106949999999902e-01,-3.543081750000000030e-01,-3.064567349999999801e-01,-1.831199999999999939e+00,7.629999999999999283e-02,1.236059999999999937e+00
8.958106949999999902e-01,-3.543081750000000030e-01,-3.064567349999999801e-01,-1.831199999999999939e+00,7.629999999999999283e-02,1.236059999999999937e+00
8.958106949999999902e-01,-3.543081750000000030e-01,-3.064567349999999801e-01,-1.831199999999999939e+00,7.629999999999999283e-02,1.236059999999999937e+00
8.958106949999999902e-01,-3.543081750000000030e-01,-3.064567349999999801e-01,-1.831199999999999939e+00,7.629999999999999283e-02,1.236059999999999937e+00
8.958106949999999902e-01,-3.543081750000000030e-01,-3.064567349999999801e-01,-1.831199999999999939e+00,7.629999999999999283e-02,1.236059999999999937e+00
8.958106949999999902e-01,-3.543081750000000030e-01,-3.064567349999999801e-01,-1.831199999999999939e+00,7.629999999999999283e-02,1.236059999999999937e+00
8.958106949999999902e-01,-3.543081750000000030e-01,-3.064567349999999801e-01,-1.831199999999999939e+00,7.629999999999999283e-02,1.236059999999999937e+00
8.958106949999999902e-01,-3.543081750000000030e-01,-3.064567349999999801e-01,-1.831199999999999939e+00,7.629999999999999283e-02,1.236059999999999937e+00
8.958106949999999902e-01,-3.543081750000000030e-01,-3.064567349999999801e-01,-1.831199999999999939e+00,7.629999999999999283e-02,1.236059999999999937e+00
8.958106949999999902e-01,-3.543081750000000030e-01,-3.064567349999999801e-01,-1.831199999999999939e+00,7.629999999999999283e-02,1.236059999999999937e+00
8.963600099999999848e-01,-3.566885399999999984e-01,-3.060905250000000022e-01,-7.477399999999999602e-01,5.341000000000000192e-01,1.098719999999999919e+00
8.963600099999999848e-01,-3.566885399999999984e-01,-3.060905250000000022e-01,-7.477399999999999602e-01,5.341000000000000192e-01,1.098719999999999919e+00
8.963600099999999848e-01,-3.566885399999999984e-01,-3.060905250000000022e-01,-7.477399999999999602e-01,5.341000000000000192e-01,1.098719999999999919e+00
8.963600099999999848e-01,-3.566885399999999984e-01,-3.060905250000000022e-01,-7.477399999999999602e-01,5.341000000000000192e-01,1.098719999999999919e+00
8.963600099999999848e-01,-3.566885399999999984e-01,-3.060905250000000022e-01,-7.477399999999999602e-01,5.341000000000000192e-01,1.098719999999999919e+00
8.963600099999999848e-01,-3.566885399999999984e-01,-3.060905250000000022e-01,-7.477399999999999602e-01,5.341000000000000192e-01,1.098719999999999919e+00
8.963600099999999848e-01,-3.566885399999999984e-01,-3.060905250000000022e-01,-7.477399999999999602e-01,5.341000000000000192e-01,1.098719999999999919e+00
8.963600099999999848e-01,-3.566885399999999984e-01,-3.060905250000000022e-01,-7.477399999999999602e-01,5.341000000000000192e-01,1.098719999999999919e+00
8.963600099999999848e-01,-3.566885399999999984e-01,-3.060905250000000022e-01,-7.477399999999999602e-01,5.341000000000000192e-01,1.098719999999999919e+00
8.963600099999999848e-01,-3.566885399999999984e-01,-3.060905250000000022e-01,-7.477399999999999602e-01,5.341000000000000192e-01,1.098719999999999919e+00
8.964820799999999590e-01,-3.566275050000000113e-01,-3.072501899999999786e-01,1.129240000000000022e+00,2.899399999999999755e-01,5.646200000000000108e-01
8.964820799999999590e-01,-3.566275050000000113e-01,-3.072501899999999786e-01,1.129240000000000022e+00,2.899399999999999755e-01,5.646200000000000108e-01
8.964820799999999590e-01,-3.566275050000000113e-01,-3.072501899999999786e-01,1.129240000000000022e+00,2.899399999999999755e-01,5.646200000000000108e-01
8.964820799999999590e-01,-3.566275050000000113e-01,-3.072501899999999786e-01,1.129240000000000022e+00,2.899399999999999755e-01,5.646200000000000108e-01
8.964820799999999590e-01,-3.566275050000000113e-01,-3.072501899999999786e-01,1.129240000000000022e+00,2.899399999999999755e-01,5.646200000000000108e-01
8.964820799999999590e-01,-3.566275050000000113e-01,-3.072501899999999786e-01,1.129240000000000022e+00,2.899399999999999755e-01,5.646200000000000108e-01
8.964820799999999590e-01,-3.566275050000000113e-01,-3.072501899999999786e-01,1.129240000000000022e+00,2.899399999999999755e-01,5.646200000000000108e-01
8.964820799999999590e-01,-3.566275050000000113e-01,-3.072501899999999786e-01,1.129240000000000022e+00,2.899399999999999755e-01,5.646200000000000108e-01
8.964820799999999590e-01,-3.566275050000000113e-01,-3.072501899999999786e-01,1.129240000000000022e+00,2.899399999999999755e-01,5.646200000000000108e-01
8.964820799999999590e-01,-3.566275050000000113e-01,-3.072501899999999786e-01,1.129240000000000022e+00,2.899399999999999755e-01,5.646200000000000108e-01
8.974586399999999742e-01,-3.540030000000000121e-01,-3.071281200000000045e-01,-6.103999999999999704e-02,3.876039999999999708e+00,-1.373399999999999899e-01
8.974586399999999742e-01,-3.540030000000000121e-01,-3.071281200000000045e-01,-6.103999999999999704e-02,3.876039999999999708e+00,-1.373399999999999899e-01
8.974586399999999742e-01,-3.540030000000000121e-01,-3.071281200000000045e-01,-6.103999999999999704e-02,3.876039999999999708e+00,-1.373399999999999899e-01
8.974586399999999742e-01,-3.540030000000000121e-01,-3.071281200000000045e-01,-6.103999999999999704e-02,3.876039999999999708e+00,-1.373399999999999899e-01
8.974586399999999742e-01,-3.540030000000000121e-01,-3.071281200000000045e-01,-6.103999999999999704e-02,3.876039999999999708e+00,-1.373399999999999899e-01
8.974586399999999742e-01,-3.540030000000000121e-01,-3.071281200000000045e-01,-6.103999999999999704e-02,3.876039999999999708e+00,-1.373399999999999899e-01
8.974586399999999742e-01,-3.540030000000000121e-01,-3.071281200000000045e-01,-6.103999999999999704e-02,3.876039999999999708e+00,-1.373399999999999899e-01
8.974586399999999742e-01,-3.540030000000000121e-01,-3.071281200000000045e-01,-6.103999999999999704e-02,3.876039999999999708e+00,-1.373399999999999899e-01
8.974586399999999742e-01,-3.540030000000000121e-01,-3.071281200000000045e-01,-6.103999999999999704e-02,3.876039999999999708e+00,-1.373399999999999899e-01
8.974586399999999742e-01,-3.540030000000000121e-01,-3.071281200000000045e-01,-6.103999999999999704e-02,3.876039999999999708e+00,-1.373399999999999899e-01
8.980079549999999688e-01,-3.520498799999999817e-01,-3.073112250000000212e-01,8.087799999999999434e-01,3.051999999999999852e-02,-2.136399999999999966e-01
8.980079549999999688e-01,-3.520498799999999817e-01,-3.073112250000000212e-01,8.087799999999999434e-01,3.051999999999999852e-02,-2.136399999999999966e-01
8.980079549999999688e-01,-3.520498799999999817e-01,-3.073112250000000212e-01,8.087799999999999434e-01,3.051999999999999852e-02,-2.136399999999999966e-01
8.980079549999999688e-01,-3.520498799999999817e-01,-3.073112250000000212e-01,8.087799999999999434e-01,3.051999999999999852e-02,-2.136399999999999966e-01
8.980079549999999688e-01,-3.520498799999999817e-01,-3.073112250000000212e-01,8.087799999999999434e-01,3.051999999999999852e-02,-2.136399999999999966e-01
8.980079549999999688e-01,-3.520498799999999817e-01,-3.073112250000000212e-01,8.087799999999999434e-01,3.051999999999999852e-02,-2.136399999999999966e-01
8.980079549999999688e-01,-3.520498799999999817e-01,-3.073112250000000212e-01,8.087799999999999434e-01,3.051999999999999852e-02,-2.136399999999999966e-01
8.980079549999999688e-01,-3.520498799999999817e-01,-3.073112250000000212e-01,8.087799999999999434e-01,3.051999999999999852e-02,-2.136399999999999966e-01
8.980079549999999688e-01,-3.520498799999999817e-01,-3.073112250000000212e-01,8.087799999999999434e-01,3.051999999999999852e-02,-2.136399999999999966e-01
8.980079549999999688e-01,-3.520498799999999817e-01,-3.073112250000000212e-01,8.087799999999999434e-01,3.051999999999999852e-02,-2.136399999999999966e-01
8.984351999999999894e-01,-3.518057399999999779e-01,-3.081046800000000196e-01,7.629999999999999283e-02,-2.441599999999999882e-01,-7.019599999999999174e-01
8.984351999999999894e-01,-3.518057399999999779e-01,-3.081046800000000196e-01,7.629999999999999283e-02,-2.441599999999999882e-01,-7.019599999999999174e-01
8.984351999999999894e-01,-3.518057399999999779e-01,-3.081046800000000196e-01,7.629999999999999283e-02,-2.441599999999999882e-01,-7.019599999999999174e-01
8.984351999999999894e-01,-3.518057399999999779e-01,-3.081046800000000196e-01,7.629999999999999283e-02,-2.441599999999999882e-01,-7.019599999999999174e-01
8.984351999999999894e-01,-3.518057399999999779e-01,-3.081046800000000196e-01,7.629999999999999283e-02,-2.441599999999999882e-01,-7.019599999999999174e-01
8.984351999999999894e-01,-3.518057399999999779e-01,-3.081046800000000196e-01,7.629999999999999283e-02,-2.441599999999999882e-01,-7.019599999999999174e-01
8.984351999999999894e-01,-3.518057399999999779e-01,-3.081046800000000196e-01,7.629999999999999283e-02,-2.441599999999999882e-01,-7.019599999999999174e-01
8.984351999999999894e-01,-3.518057399999999779e-01,-3.081046800000000196e-01,7.629999999999999283e-02,-2.441599999999999882e-01,-7.019599999999999174e-01
8.984351999999999894e-01,-3.518057399999999779e-01,-3.081046800000000196e-01,7.629999999999999283e-02,-2.441599999999999882e-01,-7.019599999999999174e-01
8.984351999999999894e-01,-3.518057399999999779e-01,-3.081046800000000196e-01,7.629999999999999283e-02,-2.441599999999999882e-01,-7.019599999999999174e-01
8.970924300000000517e-01,-3.519888449999999946e-01,-3.089591700000000052e-01,-3.967600000000000016e-01,-6.714399999999999258e-01,1.068199999999999983e-01
8.970924300000000517e-01,-3.519888449999999946e-01,-3.089591700000000052e-01,-3.967600000000000016e-01,-6.714399999999999258e-01,1.068199999999999983e-01
8.970924300000000517e-01,-3.519888449999999946e-01,-3.089591700000000052e-01,-3.967600000000000016e-01,-6.714399999999999258e-01,1.068199999999999983e-01
8.970924300000000517e-01,-3.519888449999999946e-01,-3.089591700000000052e-01,-3.967600000000000016e-01,-6.714399999999999258e-01,1.068199999999999983e-01
8.970924300000000517e-01,-3.519888449999999946e-01,-3.089591700000000052e-01,-3.967600000000000016e-01,-6.714399999999999258e-01,1.068199999999999983e-01
8.970924300000000517e-01,-3.519888449999999946e-01,-3.089591700000000052e-01,-3.967600000000000016e-01,-6.714399999999999258e-01,1.068199999999999983e-01
8.970924300000000517e-01,-3.519888449999999946e-01,-3.089591700000000052e-01,-3.967600000000000016e-01,-6.714399999999999258e-01,1.068199999999999983e-01
8.970924300000000517e-01,-3.519888449999999946e-01,-3.089591700000000052e-01,-3.967600000000000016e-01,-6.714399999999999258e-01,1.068199999999999983e-01
8.970924300000000517e-01,-3.519888449999999946e-01,-3.089591700000000052e-01,-3.967600000000000016e-01,-6.714399999999999258e-01,1.068199999999999983e-01
8.970924300000000517e-01,-3.519888449999999946e-01,-3.089591700000000052e-01,-3.967600000000000016e-01,-6.714399999999999258e-01,1.068199999999999983e-01
8.962379400000000107e-01,-3.518667750000000205e-01,-3.081046800000000196e-01,-1.525999999999999926e-02,-3.662400000000000100e-01,-1.831200000000000050e-01
8.962379400000000107e-01,-3.518667750000000205e-01,-3.081046800000000196e-01,-1.525999999999999926e-02,-3.662400000000000100e-01,-1.831200000000000050e-01
8.962379400000000107e-01,-3.518667750000000205e-01,-3.081046800000000196e-01,-1.525999999999999926e-02,-3.662400000000000100e-01,-1.831200000000000050e-01
8.962379400000000107e-01,-3.518667750000000205e-01,-3.081046800000000196e-01,-1.525999999999999926e-02,-3.662400000000000100e-01,-1.831200000000000050e-01
8.962379400000000107e-01,-3.518667750000000205e-01,-3.081046800000000196e-01,-1.525999999999999926e-02,-3.662400000000000100e-01,-1.831200000000000050e-01
8.962379400000000107e-01,-3.518667750000000205e-01,-3.081046800000000196e-01,-1.525999999999999926e-02,-3.662400000000000100e-01,-1.831200000000000050e-01
8.962379400000000107e-01,-3.518667750000000205e-01,-3.081046800000000196e-01,-1.525999999999999926e-02,-3.662400000000000100e-01,-1.831200000000000050e-01
8.962379400000000107e-01,-3.518667750000000205e-01,-3.081046800000000196e-01,-1.525999999999999926e-02,-3.662400000000000100e-01,-1.831200000000000050e-01
8.962379400000000107e-01,-3.518667750000000205e-01,-3.081046800000000196e-01,-1.525999999999999926e-02,-3.662400000000000100e-01,-1.831200000000000050e-01
8.962379400000000107e-01,-3.518667750000000205e-01,-3.081046800000000196e-01,-1.525999999999999926e-02,-3.662400000000000100e-01,-1.831200000000000050e-01
8.957496600000000031e-01,-3.517447049999999908e-01,-3.097526250000000037e-01,-2.746799999999999797e-01,-5.951400000000000023e-01,-1.525999999999999926e-02
8.957496600000000031e-01,-3.517447049999999908e-01,-3.097526250000000037e-01,-2.746799999999999797e-01,-5.951400000000000023e-01,-1.525999999999999926e-02
8.957496600000000031e-01,-3.517447049999999908e-01,-3.097526250000000037e-01,-2.746799999999999797e-01,-5.951400000000000023e-01,-1.525999999999999926e-02
8.957496600000000031e-01,-3.517447049999999908e-01,-3.097526250000000037e-01,-2.746799999999999797e-01,-5.951400000000000023e-01,-1.525999999999999926e-02
8.957496600000000031e-01,-3.517447049999999908e-01,-3.097526250000000037e-01,-2.746799999999999797e-01,-5.951400000000000023e-01,-1.525999999999999926e-02
8.957496600000000031e-01,-3.517447049999999908e-01,-3.097526250000000037e-01,-2.746799999999999797e-01,-5.951400000000000023e-01,-1.525999999999999926e-02
8.957496600000000031e-01,-3.517447049999999908e-01,-3.097526250000000037e-01,-2.746799999999999797e-01,-5.951400000000000023e-01,-1.525999999999999926e-02
8.957496600000000031e-01,-3.517447049999999908e-01,-3.097526250000000037e-01,-2.746799999999999797e-01,-5.951400000000000023e-01,-1.525999999999999926e-02
8.957496600000000031e-01,-3.517447049999999908e-01,-3.097526250000000037e-01,-2.746799999999999797e-01,-5.951400000000000023e-01,-1.525999999999999926e-02
8.957496600000000031e-01,-3.517447049999999908e-01,-3.097526250000000037e-01,-2.746799999999999797e-01,-5.951400000000000023e-01,-1.525999999999999926e-02
8.941627500000000062e-01,-3.522940199999999855e-01,-3.109122899999999801e-01,2.441599999999999882e-01,-9.155999999999999694e-01,1.983800000000000008e-01
8.941627500000000062e-01,-3.522940199999999855e-01,-3.109122899999999801e-01,2.441599999999999882e-01,-9.155999999999999694e-01,1.983800000000000008e-01
8.941627500000000062e-01,-3.522940199999999855e-01,-3.109122899999999801e-01,2.441599999999999882e-01,-9.155999999999999694e-01,1.983800000000000008e-01
8.941627500000000062e-01,-3.522940199999999855e-01,-3.109122899999999801e-01,2.441599999999999882e-01,-9.155999999999999694e-01,1.983800000000000008e-01
8.941627500000000062e-01,-3.522940199999999855e-01,-3.109122899999999801e-01,2.441599999999999882e-01,-9.155999999999999694e-01,1.983800000000000008e-01
8.941627500000000062e-01,-3.522940199999999855e-01,-3.109122899999999801e-01,2.441599999999999882e-01,-9.155999999999999694e-01,1.983800000000000008e-01
8.941627500000000062e-01,-3.522940199999999855e-01,-3.109122899999999801e-01,2.441599999999999882e-01,-9.155999999999999694e-01,1.983800000000000008e-01
8.941627500000000062e-01,-3.522940199999999855e-01,-3.109122899999999801e-01,2.441599999999999882e-01,-9.155999999999999694e-01,1.983800000000000008e-01
8.941627500000000062e-01,-3.522940199999999855e-01,-3.109122899999999801e-01,2.441599999999999882e-01,-9.155999999999999694e-01,1.983800000000000008e-01
8.941627500000000062e-01,-3.522940199999999855e-01,-3.109122899999999801e-01,2.441599999999999882e-01,-9.155999999999999694e-01,1.983800000000000008e-01
8.937355049999999856e-01,-3.519278100000000076e-01,-3.110343600000000097e-01,1.144499999999999851e+00,-3.815000000000000058e-01,3.967600000000000016e-01
8.937355049999999856e-01,-3.519278100000000076e-01,-3.110343600000000097e-01,1.144499999999999851e+00,-3.815000000000000058e-01,3.967600000000000016e-01
8.937355049999999856e-01,-3.519278100000000076e-01,-3.110343600000000097e-01,1.144499999999999851e+00,-3.815000000000000058e-01,3.967600000000000016e-01
8.937355049999999856e-01,-3.519278100000000076e-01,-3.110343600000000097e-01,1.144499999999999851e+00,-3.815000000000000058e-01,3.967600000000000016e-01
8.937355049999999856e-01,-3.519278100000000076e-01,-3.110343600000000097e-01,1.144499999999999851e+00,-3.815000000000000058e-01,3.967600000000000016e-01
8.937355049999999856e-01,-3.519278100000000076e-01,-3.110343600000000097e-01,1.144499999999999851e+00,-3.815000000000000058e-01,3.967600000000000016e-01
8.937355049999999856e-01,-3.519278100000000076e-01,-3.110343600000000097e-01,1.144499999999999851e+00,-3.815000000000000058e-01,3.967600000000000016e-01
8.937355049999999856e-01,-3.519278100000000076e-01,-3.110343600000000097e-01,1.144499999999999851e+00,-3.815000000000000058e-01,3.967600000000000016e-01
8.937355049999999856e-01,-3.519278100000000076e-01,-3.110343600000000097e-01,1.144499999999999851e+00,-3.815000000000000058e-01,3.967600000000000016e-01
8.937355049999999856e-01,-3.519278100000000076e-01,-3.110343600000000097e-01,1.144499999999999851e+00,-3.815000000000000058e-01,3.967600000000000016e-01
8.936134350000000115e-01,-3.497305500000000289e-01,-3.118888499999999953e-01,-4.883199999999999763e-01,-6.103999999999999426e-01,9.766399999999999526e-01
8.936134350000000115e-01,-3.497305500000000289e-01,-3.118888499999999953e-01,-4.883199999999999763e-01,-6.103999999999999426e-01,9.766399999999999526e-01
8.936134350000000115e-01,-3.497305500000000289e-01,-3.118888499999999953e-01,-4.883199999999999763e-01,-6.103999999999999426e-01,9.766399999999999526e-01
8.936134350000000115e-01,-3.497305500000000289e-01,-3.118888499999999953e-01,-4.883199999999999763e-01,-6.103999999999999426e-01,9.766399999999999526e-01
8.936134350000000115e-01,-3.497305500000000289e-01,-3.118888499999999953e-01,-4.883199999999999763e-01,-6.103999999999999426e-01,9.766399999999999526e-01
8.936134350000000115e-01,-3.497305500000000289e-01,-3.118888499999999953e-01,-4.883199999999999763e-01,-6.103999999999999426e-01,9.766399999999999526e-01
8.936134350000000115e-01,-3.497305500000000289e-01,-3.118888499999999953e-01,-4.883199999999999763e-01,-6.103999999999999426e-01,9.766399999999999526e-01
8.936134350000000115e-01,-3.497305500000000289e-01,-3.118888499999999953e-01,-4.883199999999999763e-01,-6.103999999999999426e-01,9.766399999999999526e-01
8.936134350000000115e-01,-3.497305500000000289e-01,-3.118888499999999953e-01,-4.883199999999999763e-01,-6.103999999999999426e-01,9.766399999999999526e-01
8.936134350000000115e-01,-3.497305500000000289e-01,-3.118888499999999953e-01,-4.883199999999999763e-01,-6.103999999999999426e-01,9.766399999999999526e-01
8.947120650000000008e-01,-3.497915850000000160e-01,-3.129264449999999975e-01,-1.541259999999999852e+00,-5.951400000000000023e-01,1.083459999999999868e+00
8.947120650000000008e-01,-3.497915850000000160e-01,-3.129264449999999975e-01,-1.541259999999999852e+00,-5.951400000000000023e-01,1.083459999999999868e+00
8.947120650000000008e-01,-3.497915850000000160e-01,-3.129264449999999975e-01,-1.541259999999999852e+00,-5.951400000000000023e-01,1.083459999999999868e+00
8.947120650000000008e-01,-3.497915850000000160e-01,-3.129264449999999975e-01,-1.541259999999999852e+00,-5.951400000000000023e-01,1.083459999999999868e+00
8.947120650000000008e-01,-3.497915850000000160e-01,-3.129264449999999975e-01,-1.541259999999999852e+00,-5.951400000000000023e-01,1.083459999999999868e+00
8.947120650000000008e-01,-3.497915850000000160e-01,-3.129264449999999975e-01,-1.541259999999999852e+00,-5.951400000000000023e-01,1.083459999999999868e+00
8.947120650000000008e-01,-3.497915850000000160e-01,-3.129264449999999975e-01,-1.541259999999999852e+00,-5.951400000000000023e-01,1.083459999999999868e+00
8.947120650000000008e-01,-3.497915850000000160e-01,-3.129264449999999975e-01,-1.541259999999999852e+00,-5.951400000000000023e-01,1.083459999999999868e+00
8.947120650000000008e-01,-3.497915850000000160e-01,-3.129264449999999975e-01,-1.541259999999999852e+00,-5.951400000000000023e-01,1.083459999999999868e+00
8.947120650000000008e-01,-3.497915850000000160e-01,-3.129264449999999975e-01,-1.541259999999999852e+00,-5.951400000000000023e-01,1.083459999999999868e+00
8.961769050000000236e-01,-3.513784950000000129e-01,-3.135978300000000218e-01,-5.035800000000000276e-01,-4.120199999999999974e-01,7.630000000000000115e-01
8.961769050000000236e-01,-3.513784950000000129e-01,-3.135978300000000218e-01,-5.035800000000000276e-01,-4.120199999999999974e-01,7.630000000000000115e-01
8.961769050000000236e-01,-3.513784950000000129e-01,-3.135978300000000218e-01,-5.035800000000000276e-01,-4.120199999999999974e-01,7.630000000000000115e-01
8.961769050000000236e-01,-3.513784950000000129e-01,-3.135978300000000218e-01,-5.035800000000000276e-01,-4.120199999999999974e-01,7.630000000000000115e-01
8.961769050000000236e-01,-3.513784950000000129e-01,-3.135978300000000218e-01,-5.035800000000000276e-01,-4.120199999999999974e-01,7.630000000000000115e-01
8.961769050000000236e-01,-3.513784950000000129e-01,-3.135978300000000218e-01,-5.035800000000000276e-01,-4.120199999999999974e-01,7.630000000000000115e-01
8.961769050000000236e-01,-3.513784950000000129e-01,-3.135978300000000218e-01,-5.035800000000000276e-01,-4.120199999999999974e-01,7.630000000000000115e-01
8.961769050000000236e-01,-3.513784950000000129e-01,-3.135978300000000218e-01,-5.035800000000000276e-01,-4.120199999999999974e-01,7.630000000000000115e-01
8.961769050000000236e-01,-3.513784950000000129e-01,-3.135978300000000218e-01,-5.035800000000000276e-01,-4.120199999999999974e-01,7.630000000000000115e-01
8.961769050000000236e-01,-3.513784950000000129e-01,-3.135978300000000218e-01,-5.035800000000000276e-01,-4.120199999999999974e-01,7.630000000000000115e-01
8.966651850000000312e-01,-3.538809299999999824e-01,-3.135367949999999793e-01,6.103999999999999704e-02,-1.373399999999999899e-01,2.288999999999999924e-01
8.966651850000000312e-01,-3.538809299999999824e-01,-3.135367949999999793e-01,6.103999999999999704e-02,-1.373399999999999899e-01,2.288999999999999924e-01
8.966651850000000312e-01,-3.538809299999999824e-01,-3.135367949999999793e-01,6.103999999999999704e-02,-1.373399999999999899e-01,2.288999999999999924e-01
8.966651850000000312e-01,-3.538809299999999824e-01,-3.135367949999999793e-01,6.103999999999999704e-02,-1.373399999999999899e-01,2.288999999999999924e-01
8.966651850000000312e-01,-3.538809299999999824e-01,-3.135367949999999793e-01,6.103999999999999704e-02,-1.373399999999999899e-01,2.288999999999999924e-01
8.966651850000000312e-01,-3.538809299999999824e-01,-3.135367949999999793e-01,6.103999999999999704e-02,-1.373399999999999899e-01,2.288999999999999924e-01
8.966651850000000312e-01,-3.538809299999999824e-01,-3.135367949999999793e-01,6.103999999999999704e-02,-1.373399999999999899e-01,2.288999999999999924e-01
8.966651850000000312e-01,-3.538809299999999824e-01,-3.135367949999999793e-01,6.103999999999999704e-02,-1.373399999999999899e-01,2.288999999999999924e-01
8.966651850000000312e-01,-3.538809299999999824e-01,-3.135367949999999793e-01,6.103999999999999704e-02,-1.373399999999999899e-01,2.288999999999999924e-01
8.966651850000000312e-01,-3.538809299999999824e-01,-3.135367949999999793e-01,6.103999999999999704e-02,-1.373399999999999899e-01,2.288999999999999924e-01
8.952003450000000084e-01,-3.525991950000000319e-01,-3.124381649999999899e-01,-5.035800000000000276e-01,-4.120199999999999974e-01,2.441599999999999882e-01
8.952003450000000084e-01,-3.525991950000000319e-01,-3.124381649999999899e-01,-5.035800000000000276e-01,-4.120199999999999974e-01,2.441599999999999882e-01
8.952003450000000084e-01,-3.525991950000000319e-01,-3.124381649999999899e-01,-5.035800000000000276e-01,-4.120199999999999974e-01,2.441599999999999882e-01
8.952003450000000084e-01,-3.525991950000000319e-01,-3.124381649999999899e-01,-5.035800000000000276e-01,-4.120199999999999974e-01,2.441599999999999882e-01
8.952003450000000084e-01,-3.525991950000000319e-01,-3.124381649999999899e-01,-5.035800000000000276e-01,-4.120199999999999974e-01,2.441599999999999882e-01
8.952003450000000084e-01,-3.525991950000000319e-01,-3.124381649999999899e-01,-5.035800000000000276e-01,-4.120199999999999974e-01,2.441599999999999882e-01
8.952003450000000084e-01,-3.525991950000000319e-01,-3.124381649999999899e-01,-5.035800000000000276e-01,-4.120199999999999974e-01,2.441599999999999882e-01
8.952003450000000084e-01,-3.525991950000000319e-01,-3.124381649999999899e-01,-5.035800000000000276e-01,-4.120199999999999974e-01,2.441599999999999882e-01
8.952003450000000084e-01,-3.525991950000000319e-01,-3.124381649999999899e-01,-5.035800000000000276e-01,-4.120199999999999974e-01,2.441599999999999882e-01
8.952003450000000084e-01,-3.525991950000000319e-01,-3.124381649999999899e-01,-5.035800000000000276e-01,-4.120199999999999974e-01,2.441599999999999882e-01
8.952003450000000084e-01,-3.521109150000000243e-01,-3.123771300000000029e-01,-1.129240000000000022e+00,-4.577999999999999847e-01,-1.220799999999999941e-01
8.952003450000000084e-01,-3.521109150000000243e-01,-3.123771300000000029e-01,-1.129240000000000022e+00,-4.577999999999999847e-01,-1.220799999999999941e-01
8.952003450000000084e-01,-3.521109150000000243e-01,-3.123771300000000029e-01,-1.129240000000000022e+00,-4.577999999999999847e-01,-1.220799999999999941e-01
8.952003450000000084e-01,-3.521109150000000243e-01,-3.123771300000000029e-01,-1.129240000000000022e+00,-4.577999999999999847e-01,-1.220799999999999941e-01
8.952003450000000084e-01,-3.521109150000000243e-01,-3.123771300000000029e-01,-1.129240000000000022e+00,-4.577999999999999847e-01,-1.220799999999999941e-01
8.952003450000000084e-01,-3.521109150000000243e-01,-3.123771300000000029e-01,-1.129240000000000022e+00,-4.577999999999999847e-01,-1.220799999999999941e-01
8.952003450000000084e-01,-3.521109150000000243e-01,-3.123771300000000029e-01,-1.129240000000000022e+00,-4.577999999999999847e-01,-1.220799999999999941e-01
8.952003450000000084e-01,-3.521109150000000243e-01,-3.123771300000000029e-01,-1.129240000000000022e+00,-4.577999999999999847e-01,-1.220799999999999941e-01
8.952003450000000084e-01,-3.521109150000000243e-01,-3.123771300000000029e-01,-1.129240000000000022e+00,-4.577999999999999847e-01,-1.220799999999999941e-01
8.952003450000000084e-01,-3.521109150000000243e-01,-3.123771300000000029e-01,-1.129240000000000022e+00,-4.577999999999999847e-01,-1.220799999999999941e-01
8.970313950000000647e-01,-3.536978250000000212e-01,-3.133536900000000180e-01,-1.129240000000000022e+00,1.678599999999999814e-01,-5.798799999999999510e-01
8.970313950000000647e-01,-3.536978250000000212e-01,-3.133536900000000180e-01,-1.129240000000000022e+00,1.678599999999999814e-01,-5.798799999999999510e-01
8.970313950000000647e-01,-3.536978250000000212e-01,-3.133536900000000180e-01,-1.129240000000000022e+00,1.678599999999999814e-01,-5.798799999999999510e-01
8.970313950000000647e-01,-3.536978250000000212e-01,-3.133536900000000180e-01,-1.129240000000000022e+00,1.678599999999999814e-01,-5.798799999999999510e-01
8.970313950000000647e-01,-3.536978250000000212e-01,-3.133536900000000180e-01,-1.129240000000000022e+00,1.678599999999999814e-01,-5.798799999999999510e-01
8.970313950000000647e-01,-3.536978250000000212e-01,-3.133536900000000180e-01,-1.129240000000000022e+00,1.678599999999999814e-01,-5.798799999999999510e-01
8.970313950000000647e-01,-3.536978250000000212e-01,-3.133536900000000180e-01,-1.129240000000000022e+00,1.678599999999999814e-01,-5.798799999999999510e-01
8.970313950000000647e-01,-3.536978250000000212e-01,-3.133536900000000180e-01,-1.129240000000000022e+00,1.678599999999999814e-01,-5.798799999999999510e-01
8.970313950000000647e-01,-3.536978250000000212e-01,-3.133536900000000180e-01,-1.129240000000000022e+00,1.678599999999999814e-01,-5.798799999999999510e-01
8.970313950000000647e-01,-3.536978250000000212e-01,-3.133536900000000180e-01,-1.129240000000000022e+00,1.678599999999999814e-01,-5.798799999999999510e-01
8.983741650000000023e-01,-3.544912800000000197e-01,-3.137809349999999831e-01,4.883199999999999763e-01,6.256599999999999939e-01,2.288999999999999924e-01
8.983741650000000023e-01,-3.544912800000000197e-01,-3.137809349999999831e-01,4.883199999999999763e-01,6.256599999999999939e-01,2.288999999999999924e-01
8.983741650000000023e-01,-3.544912800000000197e-01,-3.137809349999999831e-01,4.883199999999999763e-01,6.256599999999999939e-01,2.288999999999999924e-01
8.983741650000000023e-01,-3.544912800000000197e-01,-3.137809349999999831e-01,4.883199999999999763e-01,6.256599999999999939e-01,2.288999999999999924e-01
8.983741650000000023e-01,-3.544912800000000197e-01,-3.137809349999999831e-01,4.883199999999999763e-01,6.256599999999999939e-01,2.288999999999999924e-01
8.983741650000000023e-01,-3.544912800000000197e-01,-3.137809349999999831e-01,4.883199999999999763e-01,6.256599999999999939e-01,2.288999999999999924e-01
8.983741650000000023e-01,-3.544912800000000197e-01,-3.137809349999999831e-01,4.883199999999999763e-01,6.256599999999999939e-01,2.288999999999999924e-01
8.983741650000000023e-01,-3.544912800000000197e-01,-3.137809349999999831e-01,4.883199999999999763e-01,6.256599999999999939e-01,2.288999999999999924e-01
8.983741650000000023e-01,-3.544912800000000197e-01,-3.137809349999999831e-01,4.883199999999999763e-01,6.256599999999999939e-01,2.288999999999999924e-01
8.983741650000000023e-01,-3.544912800000000197e-01,-3.137809349999999831e-01,4.883199999999999763e-01,6.256599999999999939e-01,2.288999999999999924e-01
8.958717299999999772e-01,-3.525381599999999893e-01,-3.133536900000000180e-01,-1.525999999999999857e-01,4.577999999999999847e-01,-2.441599999999999882e-01
8.958717299999999772e-01,-3.525381599999999893e-01,-3.133536900000000180e-01,-1.525999999999999857e-01,4.577999999999999847e-01,-2.441599999999999882e-01
8.958717299999999772e-01,-3.525381599999999893e-01,-3.133536900000000180e-01,-1.525999999999999857e-01,4.577999999999999847e-01,-2.441599999999999882e-01
8.958717299999999772e-01,-3.525381599999999893e-01,-3.133536900000000180e-01,-1.525999999999999857e-01,4.577999999999999847e-01,-2.441599999999999882e-01
8.958717299999999772e-01,-3.525381599999999893e-01,-3.133536900000000180e-01,-1.525999999999999857e-01,4.577999999999999847e-01,-2.441599999999999882e-01
8.958717299999999772e-01,-3.525381599999999893e-01,-3.133536900000000180e-01,-1.525999999999999857e-01,4.577999999999999847e-01,-2.441599999999999882e-01
8.958717299999999772e-01,-3.525381599999999893e-01,-3.133536900000000180e-01,-1.525999999999999857e-01,4.577999999999999847e-01,-2.441599999999999882e-01
8.958717299999999772e-01,-3.525381599999999893e-01,-3.133536900000000180e-01,-1.525999999999999857e-01,4.577999999999999847e-01,-2.441599999999999882e-01
8.958717299999999772e-01,-3.525381599999999893e-01,-3.133536900000000180e-01,-1.525999999999999857e-01,4.577999999999999847e-01,-2.441599999999999882e-01
8.958717299999999772e-01,-3.525381599999999893e-01,-3.133536900000000180e-01,-1.525999999999999857e-01,4.577999999999999847e-01,-2.441599999999999882e-01
8.934303300000000503e-01,-3.511953899999999962e-01,-3.128654100000000104e-01,-9.155999999999999694e-01,1.068199999999999983e-01,-8.240399999999999947e-01
8.934303300000000503e-01,-3.511953899999999962e-01,-3.128654100000000104e-01,-9.155999999999999694e-01,1.068199999999999983e-01,-8.240399999999999947e-01
8.934303300000000503e-01,-3.511953899999999962e-01,-3.128654100000000104e-01,-9.155999999999999694e-01,1.068199999999999983e-01,-8.240399999999999947e-01
8.934303300000000503e-01,-3.511953899999999962e-01,-3.128654100000000104e-01,-9.155999999999999694e-01,1.068199999999999983e-01,-8.240399999999999947e-01
8.934303300000000503e-01,-3.511953899999999962e-01,-3.128654100000000104e-01,-9.155999999999999694e-01,1.068199999999999983e-01,-8.240399999999999947e-01
8.934303300000000503e-01,-3.511953899999999962e-01,-3.128654100000000104e-01,-9.155999999999999694e-01,1.068199999999999983e-01,-8.240399999999999947e-01
8.934303300000000503e-01,-3.511953899999999962e-01,-3.128654100000000104e-01,-9.155999999999999694e-01,1.068199999999999983e-01,-8.240399999999999947e-01
8.934303300000000503e-01,-3.511953899999999962e-01,-3.128654100000000104e-01,-9.155999999999999694e-01,1.068199999999999983e-01,-8.240399999999999947e-01
8.934303300000000503e-01,-3.511953899999999962e-01,-3.128654100000000104e-01,-9.155999999999999694e-01,1.068199999999999983e-01,-8.240399999999999947e-01
8.934303300000000503e-01,-3.511953899999999962e-01,-3.128654100000000104e-01,-9.155999999999999694e-01,1.068199999999999983e-01,-8.240399999999999947e-01
8.941627500000000062e-01,-3.505240050000000274e-01,-3.144523200000000074e-01,-2.075359999999999872e+00,3.662400000000000100e-01,-1.678599999999999814e-01
8.941627500000000062e-01,-3.505240050000000274e-01,-3.144523200000000074e-01,-2.075359999999999872e+00,3.662400000000000100e-01,-1.678599999999999814e-01
8.941627500000000062e-01,-3.505240050000000274e-01,-3.144523200000000074e-01,-2.075359999999999872e+00,3.662400000000000100e-01,-1.678599999999999814e-01
8.941627500000000062e-01,-3.505240050000000274e-01,-3.144523200000000074e-01,-2.075359999999999872e+00,3.662400000000000100e-01,-1.678599999999999814e-01
8.941627500000000062e-01,-3.505240050000000274e-01,-3.144523200000000074e-01,-2.075359999999999872e+00,3.662400000000000100e-01,-1.678599999999999814e-01
8.941627500000000062e-01,-3.505240050000000274e-01,-3.144523200000000074e-01,-2.075359999999999872e+00,3.662400000000000100e-01,-1.678599999999999814e-01
8.941627500000000062e-01,-3.505240050000000274e-01,-3.144523200000000074e-01,-2.075359999999999872e+00,3.662400000000000100e-01,-1.678599999999999814e-01
8.941627500000000062e-01,-3.505240050000000274e-01,-3.144523200000000074e-01,-2.075359999999999872e+00,3.662400000000000100e-01,-1.678599999999999814e-01
8.941627500000000062e-01,-3.505240050000000274e-01,-3.144523200000000074e-01,-2.075359999999999872e+00,3.662400000000000100e-01,-1.678599999999999814e-01
8.941627500000000062e-01,-3.505240050000000274e-01,-3.144523200000000074e-01,-2.075359999999999872e+00,3.662400000000000100e-01,-1.678599999999999814e-01
8.957496600000000031e-01,-3.499746900000000327e-01,-3.146964600000000112e-01,7.935200000000000031e-01,3.509799999999999587e-01,-1.220799999999999941e-01
8.957496600000000031e-01,-3.499746900000000327e-01,-3.146964600000000112e-01,7.935200000000000031e-01,3.509799999999999587e-01,-1.220799999999999941e-01
8.957496600000000031e-01,-3.499746900000000327e-01,-3.146964600000000112e-01,7.935200000000000031e-01,3.509799999999999587e-01,-1.220799999999999941e-01
8.957496600000000031e-01,-3.499746900000000327e-01,-3.146964600000000112e-01,7.935200000000000031e-01,3.509799999999999587e-01,-1.220799999999999941e-01
8.957496600000000031e-01,-3.499746900000000327e-01,-3.146964600000000112e-01,7.935200000000000031e-01,3.509799999999999587e-01,-1.220799999999999941e-01
8.957496600000000031e-01,-3.499746900000000327e-01,-3.146964600000000112e-01,7.935200000000000031e-01,3.509799999999999587e-01,-1.220799999999999941e-01
8.957496600000000031e-01,-3.499746900000000327e-01,-3.146964600000000112e-01,7.935200000000000031e-01,3.509799999999999587e-01,-1.220799999999999941e-01
8.957496600000000031e-01,-3.499746900000000327e-01,-3.146964600000000112e-01,7.935200000000000031e-01,3.509799999999999587e-01,-1.220799999999999941e-01
8.957496600000000031e-01,-3.499746900000000327e-01,-3.146964600000000112e-01,7.935200000000000031e-01,3.509799999999999587e-01,-1.220799999999999941e-01
8.957496600000000031e-01,-3.499746900000000327e-01,-3.146964600000000112e-01,7.935200000000000031e-01,3.509799999999999587e-01,-1.220799999999999941e-01
8.966651850000000312e-01,-3.480215700000000023e-01,-3.134757599999999922e-01,-6.714399999999999258e-01,-3.815000000000000058e-01,-2.441599999999999882e-01
8.966651850000000312e-01,-3.480215700000000023e-01,-3.134757599999999922e-01,-6.714399999999999258e-01,-3.815000000000000058e-01,-2.441599999999999882e-01
8.966651850000000312e-01,-3.480215700000000023e-01,-3.134757599999999922e-01,-6.714399999999999258e-01,-3.815000000000000058e-01,-2.441599999999999882e-01
8.966651850000000312e-01,-3.480215700000000023e-01,-3.134757599999999922e-01,-6.714399999999999258e-01,-3.815000000000000058e-01,-2.441599999999999882e-01
8.966651850000000312e-01,-3.480215700000000023e-01,-3.134757599999999922e-01,-6.714399999999999258e-01,-3.815000000000000058e-01,-2.441599999999999882e-01
8.966651850000000312e-01,-3.480215700000000023e-01,-3.134757599999999922e-01,-6.714399999999999258e-01,-3.815000000000000058e-01,-2.441599999999999882e-01
8.966651850000000312e-01,-3.480215700000000023e-01,-3.134757599999999922e-01,-6.714399999999999258e-01,-3.815000000000000058e-01,-2.441599999999999882e-01
8.966651850000000312e-01,-3.480215700000000023e-01,-3.134757599999999922e-01,-6.714399999999999258e-01,-3.815000000000000058e-01,-2.441599999999999882e-01
8.966651850000000312e-01,-3.480215700000000023e-01,-3.134757599999999922e-01,-6.714399999999999258e-01,-3.815000000000000058e-01,-2.441599999999999882e-01
8.966651850000000312e-01,-3.480215700000000023e-01,-3.134757599999999922e-01,-6.714399999999999258e-01,-3.815000000000000058e-01,-2.441599999999999882e-01
8.972145000000000259e-01,-3.484488150000000228e-01,-3.138419700000000256e-01,-3.036739999999999995e+00,-7.629999999999999283e-02,1.373399999999999899e-01
8.972145000000000259e-01,-3.484488150000000228e-01,-3.138419700000000256e-01,-3.036739999999999995e+00,-7.629999999999999283e-02,1.373399999999999899e-01
8.972145000000000259e-01,-3.484488150000000228e-01,-3.138419700000000256e-01,-3.036739999999999995e+00,-7.629999999999999283e-02,1.373399999999999899e-01
8.972145000000000259e-01,-3.484488150000000228e-01,-3.138419700000000256e-01,-3.036739999999999995e+00,-7.629999999999999283e-02,1.373399999999999899e-01
8.972145000000000259e-01,-3.484488150000000228e-01,-3.138419700000000256e-01,-3.036739999999999995e+00,-7.629999999999999283e-02,1.373399999999999899e-01
8.972145000000000259e-01,-3.484488150000000228e-01,-3.138419700000000256e-01,-3.036739999999999995e+00,-7.629999999999999283e-02,1.373399999999999899e-01
8.972145000000000259e-01,-3.484488150000000228e-01,-3.138419700000000256e-01,-3.036739999999999995e+00,-7.629999999999999283e-02,1.373399999999999899e-01
8.972145000000000259e-01,-3.484488150000000228e-01,-3.138419700000000256e-01,-3.036739999999999995e+00,-7.629999999999999283e-02,1.373399999999999899e-01
8.972145000000000259e-01,-3.484488150000000228e-01,-3.138419700000000256e-01,-3.036739999999999995e+00,-7.629999999999999283e-02,1.373399999999999899e-01
8.972145000000000259e-01,-3.484488150000000228e-01,-3.138419700000000256e-01,-3.036739999999999995e+00,-7.629999999999999283e-02,1.373399999999999899e-01
8.974586399999999742e-01,-3.529654050000000098e-01,-3.149406000000000150e-01,-1.709119999999999973e+00,1.983800000000000008e-01,-1.037679999999999936e+00
8.974586399999999742e-01,-3.529654050000000098e-01,-3.149406000000000150e-01,-1.709119999999999973e+00,1.983800000000000008e-01,-1.037679999999999936e+00
8.974586399999999742e-01,-3.529654050000000098e-01,-3.149406000000000150e-01,-1.709119999999999973e+00,1.983800000000000008e-01,-1.037679999999999936e+00
8.974586399999999742e-01,-3.529654050000000098e-01,-3.149406000000000150e-01,-1.709119999999999973e+00,1.983800000000000008e-01,-1.037679999999999936e+00
8.974586399999999742e-01,-3.529654050000000098e-01,-3.149406000000000150e-01,-1.709119999999999973e+00,1.983800000000000008e-01,-1.037679999999999936e+00
8.974586399999999742e-01,-3.529654050000000098e-01,-3.149406000000000150e-01,-1.709119999999999973e+00,1.983800000000000008e-01,-1.037679999999999936e+00
8.974586399999999742e-01,-3.529654050000000098e-01,-3.149406000000000150e-01,-1.709119999999999973e+00,1.983800000000000008e-01,-1.037679999999999936e+00
8.974586399999999742e-01,-3.529654050000000098e-01,-3.149406000000000150e-01,-1.709119999999999973e+00,1.983800000000000008e-01,-1.037679999999999936e+00
8.974586399999999742e-01,-3.529654050000000098e-01,-3.149406000000000150e-01,-1.709119999999999973e+00,1.983800000000000008e-01,-1.037679999999999936e+00
8.974586399999999742e-01,-3.529654050000000098e-01,-3.149406000000000150e-01,-1.709119999999999973e+00,1.983800000000000008e-01,-1.037679999999999936e+00
8.972145000000000259e-01,-3.564443999999999946e-01,-3.176261400000000013e-01,-1.144499999999999851e+00,1.129240000000000022e+00,-5.646200000000000108e-01
8.972145000000000259e-01,-3.564443999999999946e-01,-3.176261400000000013e-01,-1.144499999999999851e+00,1.129240000000000022e+00,-5.646200000000000108e-01
8.972145000000000259e-01,-3.564443999999999946e-01,-3.176261400000000013e-01,-1.144499999999999851e+00,1.129240000000000022e+00,-5.646200000000000108e-01
8.972145000000000259e-01,-3.564443999999999946e-01,-3.176261400000000013e-01,-1.144499999999999851e+00,1.129240000000000022e+00,-5.646200000000000108e-01
8.972145000000000259e-01,-3.564443999999999946e-01,-3.176261400000000013e-01,-1.144499999999999851e+00,1.129240000000000022e+00,-5.646200000000000108e-01
8.972145000000000259e-01,-3.564443999999999946e-01,-3.176261400000000013e-01,-1.144499999999999851e+00,1.129240000000000022e+00,-5.646200000000000108e-01
8.972145000000000259e-01,-3.564443999999999946e-01,-3.176261400000000013e-01,-1.144499999999999851e+00,1.129240000000000022e+00,-5.646200000000000108e-01
8.972145000000000259e-01,-3.564443999999999946e-01,-3.176261400000000013e-01,-1.144499999999999851e+00,1.129240000000000022e+00,-5.646200000000000108e-01
8.972145000000000259e-01,-3.564443999999999946e-01,-3.176261400000000013e-01,-1.144499999999999851e+00,1.129240000000000022e+00,-5.646200000000000108e-01
8.972145000000000259e-01,-3.564443999999999946e-01,-3.176261400000000013e-01,-1.144499999999999851e+00,1.129240000000000022e+00,-5.646200000000000108e-01
8.970313950000000647e-01,-3.560171550000000296e-01,-3.179313149999999921e-01,9.461199999999999610e-01,1.892239999999999922e+00,-1.526000000000000023e+00
8.970313950000000647e-01,-3.560171550000000296e-01,-3.179313149999999921e-01,9.461199999999999610e-01,1.892239999999999922e+00,-1.526000000000000023e+00
8.970313950000000647e-01,-3.560171550000000296e-01,-3.179313149999999921e-01,9.461199999999999610e-01,1.892239999999999922e+00,-1.526000000000000023e+00
8.970313950000000647e-01,-3.560171550000000296e-01,-3.179313149999999921e-01,9.461199999999999610e-01,1.892239999999999922e+00,-1.526000000000000023e+00
8.970313950000000647e-01,-3.560171550000000296e-01,-3.179313149999999921e-01,9.461199999999999610e-01,1.892239999999999922e+00,-1.526000000000000023e+00
8.970313950000000647e-01,-3.560171550000000296e-01,-3.179313149999999921e-01,9.461199999999999610e-01,1.892239999999999922e+00,-1.526000000000000023e+00
8.970313950000000647e-01,-3.560171550000000296e-01,-3.179313149999999921e-01,9.461199999999999610e-01,1.892239999999999922e+00,-1.526000000000000023e+00
8.970313950000000647e-01,-3.560171550000000296e-01,-3.179313149999999921e-01,9.461199999999999610e-01,1.892239999999999922e+00,-1.526000000000000023e+00
8.970313950000000647e-01,-3.560171550000000296e-01,-3.179313149999999921e-01,9.461199999999999610e-01,1.892239999999999922e+00,-1.526000000000000023e+00
8.970313950000000647e-01,-3.560171550000000296e-01,-3.179313149999999921e-01,9.461199999999999610e-01,1.892239999999999922e+00,-1.526000000000000023e+00
8.961769050000000236e-01,-3.518667750000000205e-01,-3.170768250000000066e-01,4.272799999999999931e-01,1.541259999999999852e+00,-9.155999999999999694e-01
8.961769050000000236e-01,-3.518667750000000205e-01,-3.170768250000000066e-01,4.272799999999999931e-01,1.541259999999999852e+00,-9.155999999999999694e-01
8.961769050000000236e-01,-3.518667750000000205e-01,-3.170768250000000066e-01,4.272799999999999931e-01,1.541259999999999852e+00,-9.155999999999999694e-01
8.961769050000000236e-01,-3.518667750000000205e-01,-3.170768250000000066e-01,4.272799999999999931e-01,1.541259999999999852e+00,-9.155999999999999694e-01
8.961769050000000236e-01,-3.518667750000000205e-01,-3.170768250000000066e-01,4.272799999999999931e-01,1.541259999999999852e+00,-9.155999999999999694e-01
8.961769050000000236e-01,-3.518667750000000205e-01,-3.170768250000000066e-01,4.272799999999999931e-01,1.541259999999999852e+00,-9.155999999999999694e-01
8.961769050000000236e-01,-3.518667750000000205e-01,-3.170768250000000066e-01,4.272799999999999931e-01,1.541259999999999852e+00,-9.155999999999999694e-01
8.961769050000000236e-01,-3.518667750000000205e-01,-3.170768250000000066e-01,4.272799999999999931e-01,1.541259999999999852e+00,-9.155999999999999694e-01
8.961769050000000236e-01,-3.518667750000000205e-01,-3.170768250000000066e-01,4.272799999999999931e-01,1.541259999999999852e+00,-9.155999999999999694e-01
8.961769050000000236e-01,-3.518667750000000205e-01,-3.170768250000000066e-01,4.272799999999999931e-01,1.541259999999999852e+00,-9.155999999999999694e-01
8.956886250000000160e-01,-3.491201999999999916e-01,-3.156730200000000264e-01,-7.629999999999999283e-02,1.693859999999999921e+00,-4.272799999999999931e-01
8.956886250000000160e-01,-3.491201999999999916e-01,-3.156730200000000264e-01,-7.629999999999999283e-02,1.693859999999999921e+00,-4.272799999999999931e-01
8.956886250000000160e-01,-3.491201999999999916e-01,-3.156730200000000264e-01,-7.629999999999999283e-02,1.693859999999999921e+00,-4.272799999999999931e-01
8.956886250000000160e-01,-3.491201999999999916e-01,-3.156730200000000264e-01,-7.629999999999999283e-02,1.693859999999999921e+00,-4.272799999999999931e-01
8.956886250000000160e-01,-3.491201999999999916e-01,-3.156730200000000264e-01,-7.629999999999999283e-02,1.693859999999999921e+00,-4.272799999999999931e-01
8.956886250000000160e-01,-3.491201999999999916e-01,-3.156730200000000264e-01,-7.629999999999999283e-02,1.693859999999999921e+00,-4.272799999999999931e-01
8.956886250000000160e-01,-3.491201999999999916e-01,-3.156730200000000264e-01,-7.629999999999999283e-02,1.693859999999999921e+00,-4.272799999999999931e-01
8.956886250000000160e-01,-3.491201999999999916e-01,-3.156730200000000264e-01,-7.629999999999999283e-02,1.693859999999999921e+00,-4.272799999999999931e-01
8.956886250000000160e-01,-3.491201999999999916e-01,-3.156730200000000264e-01,-7.629999999999999283e-02,1.693859999999999921e+00,-4.272799999999999931e-01
8.956886250000000160e-01,-3.491201999999999916e-01,-3.156730200000000264e-01,-7.629999999999999283e-02,1.693859999999999921e+00,-4.272799999999999931e-01
8.932472249999999780e-01,-3.493643399999999954e-01,-3.142692149999999907e-01,-1.144499999999999851e+00,1.754899999999999904e+00,-3.051999999999999852e-02
8.932472249999999780e-01,-3.493643399999999954e-01,-3.142692149999999907e-01,-1.144499999999999851e+00,1.754899999999999904e+00,-3.051999999999999852e-02
8.932472249999999780e-01,-3.493643399999999954e-01,-3.142692149999999907e-01,-1.144499999999999851e+00,1.754899999999999904e+00,-3.051999999999999852e-02
8.932472249999999780e-01,-3.493643399999999954e-01,-3.142692149999999907e-01,-1.144499999999999851e+00,1.754899999999999904e+00,-3.051999999999999852e-02
8.932472249999999780e-01,-3.493643399999999954e-01,-3.142692149999999907e-01,-1.144499999999999851e+00,1.754899999999999904e+00,-3.051999999999999852e-02
8.932472249999999780e-01,-3.493643399999999954e-01,-3.142692149999999907e-01,-1.144499999999999851e+00,1.754899999999999904e+00,-3.051999999999999852e-02
8.932472249999999780e-01,-3.493643399999999954e-01,-3.142692149999999907e-01,-1.144499999999999851e+00,1.754899999999999904e+00,-3.051999999999999852e-02
8.932472249999999780e-01,-3.493643399999999954e-01,-3.142692149999999907e-01,-1.144499999999999851e+00,1.754899999999999904e+00,-3.051999999999999852e-02
8.932472249999999780e-01,-3.493643399999999954e-01,-3.142692149999999907e-01,-1.144499999999999851e+00,1.754899999999999904e+00,-3.051999999999999852e-02
8.932472249999999780e-01,-3.493643399999999954e-01,-3.142692149999999907e-01,-1.144499999999999851e+00,1.754899999999999904e+00,-3.051999999999999852e-02
8.921485949999999887e-01,-3.515005649999999870e-01,-3.147574949999999983e-01,-4.577999999999999847e-01,1.846459999999999990e+00,-5.493599999999999595e-01
8.921485949999999887e-01,-3.515005649999999870e-01,-3.147574949999999983e-01,-4.577999999999999847e-01,1.846459999999999990e+00,-5.493599999999999595e-01
8.921485949999999887e-01,-3.515005649999999870e-01,-3.147574949999999983e-01,-4.577999999999999847e-01,1.846459999999999990e+00,-5.493599999999999595e-01
8.921485949999999887e-01,-3.515005649999999870e-01,-3.147574949999999983e-01,-4.577999999999999847e-01,1.846459999999999990e+00,-5.493599999999999595e-01
8.921485949999999887e-01,-3.515005649999999870e-01,-3.147574949999999983e-01,-4.577999999999999847e-01,1.846459999999999990e+00,-5.493599999999999595e-01
8.921485949999999887e-01,-3.515005649999999870e-01,-3.147574949999999983e-01,-4.577999999999999847e-01,1.846459999999999990e+00,-5.493599999999999595e-01
8.921485949999999887e-01,-3.515005649999999870e-01,-3.147574949999999983e-01,-4.577999999999999847e-01,1.846459999999999990e+00,-5.493599999999999595e-01
8.921485949999999887e-01,-3.515005649999999870e-01,-3.147574949999999983e-01,-4.577999999999999847e-01,1.846459999999999990e+00,-5.493599999999999595e-01
8.921485949999999887e-01,-3.515005649999999870e-01,-3.147574949999999983e-01,-4.577999999999999847e-01,1.846459999999999990e+00,-5.493599999999999595e-01
8.921485949999999887e-01,-3.515005649999999870e-01,-3.147574949999999983e-01,-4.577999999999999847e-01,1.846459999999999990e+00,-5.493599999999999595e-01
8.939796450000000450e-01,-3.502188299999999810e-01,-3.145743899999999815e-01,-9.461199999999999610e-01,2.075359999999999872e+00,-4.120199999999999974e-01
8.939796450000000450e-01,-3.502188299999999810e-01,-3.145743899999999815e-01,-9.461199999999999610e-01,2.075359999999999872e+00,-4.120199999999999974e-01
8.939796450000000450e-01,-3.502188299999999810e-01,-3.145743899999999815e-01,-9.461199999999999610e-01,2.075359999999999872e+00,-4.120199999999999974e-01
8.939796450000000450e-01,-3.502188299999999810e-01,-3.145743899999999815e-01,-9.461199999999999610e-01,2.075359999999999872e+00,-4.120199999999999974e-01
8.939796450000000450e-01,-3.502188299999999810e-01,-3.145743899999999815e-01,-9.461199999999999610e-01,2.075359999999999872e+00,-4.120199999999999974e-01
8.939796450000000450e-01,-3.502188299999999810e-01,-3.145743899999999815e-01,-9.461199999999999610e-01,2.075359999999999872e+00,-4.120199999999999974e-01
8.939796450000000450e-01,-3.502188299999999810e-01,-3.145743899999999815e-01,-9.461199999999999610e-01,2.075359999999999872e+00,-4.120199999999999974e-01
8.939796450000000450e-01,-3.502188299999999810e-01,-3.145743899999999815e-01,-9.461199999999999610e-01,2.075359999999999872e+00,-4.120199999999999974e-01
8.939796450000000450e-01,-3.502188299999999810e-01,-3.145743899999999815e-01,-9.461199999999999610e-01,2.075359999999999872e+00,-4.120199999999999974e-01
8.939796450000000450e-01,-3.502188299999999810e-01,-3.145743899999999815e-01,-9.461199999999999610e-01,2.075359999999999872e+00,-4.120199999999999974e-01
8.956886250000000160e-01,-3.475943249999999818e-01,-3.142081800000000036e-01,-1.159759999999999902e+00,2.182179999999999787e+00,1.068199999999999983e-01
8.956886250000000160e-01,-3.475943249999999818e-01,-3.142081800000000036e-01,-1.159759999999999902e+00,2.182179999999999787e+00,1.068199999999999983e-01
8.956886250000000160e-01,-3.475943249999999818e-01,-3.142081800000000036e-01,-1.159759999999999902e+00,2.182179999999999787e+00,1.068199999999999983e-01
8.956886250000000160e-01,-3.475943249999999818e-01,-3.142081800000000036e-01,-1.159759999999999902e+00,2.182179999999999787e+00,1.068199999999999983e-01
8.956886250000000160e-01,-3.475943249999999818e-01,-3.142081800000000036e-01,-1.159759999999999902e+00,2.182179999999999787e+00,1.068199999999999983e-01
8.956886250000000160e-01,-3.475943249999999818e-01,-3.142081800000000036e-01,-1.159759999999999902e+00,2.182179999999999787e+00,1.068199999999999983e-01
8.956886250000000160e-01,-3.475943249999999818e-01,-3.142081800000000036e-01,-1.159759999999999902e+00,2.182179999999999787e+00,1.068199999999999983e-01
8.956886250000000160e-01,-3.475943249999999818e-01,-3.142081800000000036e-01,-1.159759999999999902e+00,2.182179999999999787e+00,1.068199999999999983e-01
8.956886250000000160e-01,-3.475943249999999818e-01,-3.142081800000000036e-01,-1.159759999999999902e+00,2.182179999999999787e+00,1.068199999999999983e-01
8.956886250000000160e-01,-3.475943249999999818e-01,-3.142081800000000036e-01,-1.159759999999999902e+00,2.182179999999999787e+00,1.068199999999999983e-01
8.952613799999999955e-01,-3.472281150000000038e-01,-3.143912850000000203e-01,-8.698199999999999266e-01,2.655240000000000045e+00,-7.629999999999999283e-02
8.952613799999999955e-01,-3.472281150000000038e-01,-3.143912850000000203e-01,-8.698199999999999266e-01,2.655240000000000045e+00,-7.629999999999999283e-02
8.952613799999999955e-01,-3.472281150000000038e-01,-3.143912850000000203e-01,-8.698199999999999266e-01,2.655240000000000045e+00,-7.629999999999999283e-02
8.952613799999999955e-01,-3.472281150000000038e-01,-3.143912850000000203e-01,-8.698199999999999266e-01,2.655240000000000045e+00,-7.629999999999999283e-02
8.952613799999999955e-01,-3.472281150000000038e-01,-3.143912850000000203e-01,-8.698199999999999266e-01,2.655240000000000045e+00,-7.629999999999999283e-02
8.952613799999999955e-01,-3.472281150000000038e-01,-3.143912850000000203e-01,-8.698199999999999266e-01,2.655240000000000045e+00,-7.629999999999999283e-02
8.952613799999999955e-01,-3.472281150000000038e-01,-3.143912850000000203e-01,-8.698199999999999266e-01,2.655240000000000045e+00,-7.629999999999999283e-02
8.952613799999999955e-01,-3.472281150000000038e-01,-3.143912850000000203e-01,-8.698199999999999266e-01,2.655240000000000045e+00,-7.629999999999999283e-02
8.952613799999999955e-01,-3.472281150000000038e-01,-3.143912850000000203e-01,-8.698199999999999266e-01,2.655240000000000045e+00,-7.629999999999999283e-02
8.952613799999999955e-01,-3.472281150000000038e-01,-3.143912850000000203e-01,-8.698199999999999266e-01,2.655240000000000045e+00,-7.629999999999999283e-02
8.956886250000000160e-01,-3.478384649999999856e-01,-3.157950900000000005e-01,-1.785420000000000007e+00,2.502639999999999976e+00,7.019599999999999174e-01
8.956886250000000160e-01,-3.478384649999999856e-01,-3.157950900000000005e-01,-1.785420000000000007e+00,2.502639999999999976e+00,7.019599999999999174e-01
8.956886250000000160e-01,-3.478384649999999856e-01,-3.157950900000000005e-01,-1.785420000000000007e+00,2.502639999999999976e+00,7.019599999999999174e-01
8.956886250000000160e-01,-3.478384649999999856e-01,-3.157950900000000005e-01,-1.785420000000000007e+00,2.502639999999999976e+00,7.019599999999999174e-01
8.956886250000000160e-01,-3.478384649999999856e-01,-3.157950900000000005e-01,-1.785420000000000007e+00,2.502639999999999976e+00,7.019599999999999174e-01
8.956886250000000160e-01,-3.478384649999999856e-01,-3.157950900000000005e-01,-1.785420000000000007e+00,2.502639999999999976e+00,7.019599999999999174e-01
8.956886250000000160e-01,-3.478384649999999856e-01,-3.157950900000000005e-01,-1.785420000000000007e+00,2.502639999999999976e+00,7.019599999999999174e-01
8.956886250000000160e-01,-3.478384649999999856e-01,-3.157950900000000005e-01,-1.785420000000000007e+00,2.502639999999999976e+00,7.019599999999999174e-01
8.956886250000000160e-01,-3.478384649999999856e-01,-3.157950900000000005e-01,-1.785420000000000007e+00,2.502639999999999976e+00,7.019599999999999174e-01
8.956886250000000160e-01,-3.478384649999999856e-01,-3.157950900000000005e-01,-1.785420000000000007e+00,2.502639999999999976e+00,7.019599999999999174e-01
8.975196749999999613e-01,-3.475943249999999818e-01,-3.141471450000000165e-01,-5.188399999999999679e-01,3.570840000000000014e+00,3.204599999999999671e-01
8.975196749999999613e-01,-3.475943249999999818e-01,-3.141471450000000165e-01,-5.188399999999999679e-01,3.570840000000000014e+00,3.204599999999999671e-01
8.975196749999999613e-01,-3.475943249999999818e-01,-3.141471450000000165e-01,-5.188399999999999679e-01,3.570840000000000014e+00,3.204599999999999671e-01
8.975196749999999613e-01,-3.475943249999999818e-01,-3.141471450000000165e-01,-5.188399999999999679e-01,3.570840000000000014e+00,3.204599999999999671e-01
8.975196749999999613e-01,-3.475943249999999818e-01,-3.141471450000000165e-01,-5.188399999999999679e-01,3.570840000000000014e+00,3.204599999999999671e-01
8.975196749999999613e-01,-3.475943249999999818e-01,-3.141471450000000165e-01,-5.188399999999999679e-01,3.570840000000000014e+00,3.204599999999999671e-01
8.975196749999999613e-01,-3.475943249999999818e-01,-3.141471450000000165e-01,-5.188399999999999679e-01,3.570840000000000014e+00,3.204599999999999671e-01
8.975196749999999613e-01,-3.475943249999999818e-01,-3.141471450000000165e-01,-5.188399999999999679e-01,3.570840000000000014e+00,3.204599999999999671e-01
8.975196749999999613e-01,-3.475943249999999818e-01,-3.141471450000000165e-01,-5.188399999999999679e-01,3.570840000000000014e+00,3.204599999999999671e-01
8.975196749999999613e-01,-3.475943249999999818e-01,-3.141471450000000165e-01,-5.188399999999999679e-01,3.570840000000000014e+00,3.204599999999999671e-01
8.961769050000000236e-01,-3.461294850000000145e-01,-3.133536900000000180e-01,-5.493599999999999595e-01,2.639979999999999993e+00,5.646200000000000108e-01
8.961769050000000236e-01,-3.461294850000000145e-01,-3.133536900000000180e-01,-5.493599999999999595e-01,2.639979999999999993e+00,5.646200000000000108e-01
8.961769050000000236e-01,-3.461294850000000145e-01,-3.133536900000000180e-01,-5.493599999999999595e-01,2.639979999999999993e+00,5.646200000000000108e-01
8.961769050000000236e-01,-3.461294850000000145e-01,-3.133536900000000180e-01,-5.493599999999999595e-01,2.639979999999999993e+00,5.646200000000000108e-01
8.961769050000000236e-01,-3.461294850000000145e-01,-3.133536900000000180e-01,-5.493599999999999595e-01,2.639979999999999993e+00,5.646200000000000108e-01
8.961769050000000236e-01,-3.461294850000000145e-01,-3.133536900000000180e-01,-5.493599999999999595e-01,2.639979999999999993e+00,5.646200000000000108e-01
8.961769050000000236e-01,-3.461294850000000145e-01,-3.133536900000000180e-01,-5.493599999999999595e-01,2.639979999999999993e+00,5.646200000000000108e-01
8.961769050000000236e-01,-3.461294850000000145e-01,-3.133536900000000180e-01,-5.493599999999999595e-01,2.639979999999999993e+00,5.646200000000000108e-01
8.961769050000000236e-01,-3.461294850000000145e-01,-3.133536900000000180e-01,-5.493599999999999595e-01,2.639979999999999993e+00,5.646200000000000108e-01
8.961769050000000236e-01,-3.461294850000000145e-01,-3.133536900000000180e-01,-5.493599999999999595e-01,2.639979999999999993e+00,5.646200000000000108e-01
8.947120650000000008e-01,-3.447867150000000214e-01,-3.136588650000000089e-01,-2.884139999999999926e+00,2.685759999999999703e+00,1.266580000000000039e+00
8.947120650000000008e-01,-3.447867150000000214e-01,-3.136588650000000089e-01,-2.884139999999999926e+00,2.685759999999999703e+00,1.266580000000000039e+00
8.947120650000000008e-01,-3.447867150000000214e-01,-3.136588650000000089e-01,-2.884139999999999926e+00,2.685759999999999703e+00,1.266580000000000039e+00
8.947120650000000008e-01,-3.447867150000000214e-01,-3.136588650000000089e-01,-2.884139999999999926e+00,2.685759999999999703e+00,1.266580000000000039e+00
8.947120650000000008e-01,-3.447867150000000214e-01,-3.136588650000000089e-01,-2.884139999999999926e+00,2.685759999999999703e+00,1.266580000000000039e+00
8.947120650000000008e-01,-3.447867150000000214e-01,-3.136588650000000089e-01,-2.884139999999999926e+00,2.685759999999999703e+00,1.266580000000000039e+00
8.947120650000000008e-01,-3.447867150000000214e-01,-3.136588650000000089e-01,-2.884139999999999926e+00,2.685759999999999703e+00,1.266580000000000039e+00
8.947120650000000008e-01,-3.447867150000000214e-01,-3.136588650000000089e-01,-2.884139999999999926e+00,2.685759999999999703e+00,1.266580000000000039e+00
8.947120650000000008e-01,-3.447867150000000214e-01,-3.136588650000000089e-01,-2.884139999999999926e+00,2.685759999999999703e+00,1.266580000000000039e+00
8.947120650000000008e-01,-3.447867150000000214e-01,-3.136588650000000089e-01,-2.884139999999999926e+00,2.685759999999999703e+00,1.266580000000000039e+00
8.956275900000000290e-01,-3.483267449999999932e-01,-3.139030050000000127e-01,-2.426339999999999719e+00,2.868879999999999875e+00,1.037679999999999936e+00
8.956275900000000290e-01,-3.483267449999999932e-01,-3.139030050000000127e-01,-2.426339999999999719e+00,2.868879999999999875e+00,1.037679999999999936e+00
8.956275900000000290e-01,-3.483267449999999932e-01,-3.139030050000000127e-01,-2.426339999999999719e+00,2.868879999999999875e+00,1.037679999999999936e+00
8.956275900000000290e-01,-3.483267449999999932e-01,-3.139030050000000127e-01,-2.426339999999999719e+00,2.868879999999999875e+00,1.037679999999999936e+00
8.956275900000000290e-01,-3.483267449999999932e-01,-3.139030050000000127e-01,-2.426339999999999719e+00,2.868879999999999875e+00,1.037679999999999936e+00
8.956275900000000290e-01,-3.483267449999999932e-01,-3.139030050000000127e-01,-2.426339999999999719e+00,2.868879999999999875e+00,1.037679999999999936e+00
8.956275900000000290e-01,-3.483267449999999932e-01,-3.139030050000000127e-01,-2.426339999999999719e+00,2.868879999999999875e+00,1.037679999999999936e+00
8.956275900000000290e-01,-3.483267449999999932e-01,-3.139030050000000127e-01,-2.426339999999999719e+00,2.868879999999999875e+00,1.037679999999999936e+00
8.956275900000000290e-01,-3.483267449999999932e-01,-3.139030050000000127e-01,-2.426339999999999719e+00,2.868879999999999875e+00,1.037679999999999936e+00
8.956275900000000290e-01,-3.483267449999999932e-01,-3.139030050000000127e-01,-2.426339999999999719e+00,2.868879999999999875e+00,1.037679999999999936e+00
8.983131300000000152e-01,-3.514395300000000000e-01,-3.138419700000000256e-01,-1.236059999999999937e+00,2.884139999999999926e+00,1.037679999999999936e+00
8.983131300000000152e-01,-3.514395300000000000e-01,-3.138419700000000256e-01,-1.236059999999999937e+00,2.884139999999999926e+00,1.037679999999999936e+00
8.983131300000000152e-01,-3.514395300000000000e-01,-3.138419700000000256e-01,-1.236059999999999937e+00,2.884139999999999926e+00,1.037679999999999936e+00
8.983131300000000152e-01,-3.514395300000000000e-01,-3.138419700000000256e-01,-1.236059999999999937e+00,2.884139999999999926e+00,1.037679999999999936e+00
8.983131300000000152e-01,-3.514395300000000000e-01,-3.138419700000000256e-01,-1.236059999999999937e+00,2.884139999999999926e+00,1.037679999999999936e+00
8.983131300000000152e-01,-3.514395300000000000e-01,-3.138419700000000256e-01,-1.236059999999999937e+00,2.884139999999999926e+00,1.037679999999999936e+00
8.983131300000000152e-01,-3.514395300000000000e-01,-3.138419700000000256e-01,-1.236059999999999937e+00,2.884139999999999926e+00,1.037679999999999936e+00
8.983131300000000152e-01,-3.514395300000000000e-01,-3.138419700000000256e-01,-1.236059999999999937e+00,2.884139999999999926e+00,1.037679999999999936e+00
8.983131300000000152e-01,-3.514395300000000000e-01,-3.138419700000000256e-01,-1.236059999999999937e+00,2.884139999999999926e+00,1.037679999999999936e+00
8.983131300000000152e-01,-3.514395300000000000e-01,-3.138419700000000256e-01,-1.236059999999999937e+00,2.884139999999999926e+00,1.037679999999999936e+00
8.997169350000000509e-01,-3.510733200000000220e-01,-3.124381649999999899e-01,-7.477399999999999602e-01,3.647139999999999826e+00,1.190280000000000005e+00
8.997169350000000509e-01,-3.510733200000000220e-01,-3.124381649999999899e-01,-7.477399999999999602e-01,3.647139999999999826e+00,1.190280000000000005e+00
8.997169350000000509e-01,-3.510733200000000220e-01,-3.124381649999999899e-01,-7.477399999999999602e-01,3.647139999999999826e+00,1.190280000000000005e+00
8.997169350000000509e-01,-3.510733200000000220e-01,-3.124381649999999899e-01,-7.477399999999999602e-01,3.647139999999999826e+00,1.190280000000000005e+00
8.997169350000000509e-01,-3.510733200000000220e-01,-3.124381649999999899e-01,-7.477399999999999602e-01,3.647139999999999826e+00,1.190280000000000005e+00
8.997169350000000509e-01,-3.510733200000000220e-01,-3.124381649999999899e-01,-7.477399999999999602e-01,3.647139999999999826e+00,1.190280000000000005e+00
8.997169350000000509e-01,-3.510733200000000220e-01,-3.124381649999999899e-01,-7.477399999999999602e-01,3.647139999999999826e+00,1.190280000000000005e+00
8.997169350000000509e-01,-3.510733200000000220e-01,-3.124381649999999899e-01,-7.477399999999999602e-01,3.647139999999999826e+00,1.190280000000000005e+00
8.997169350000000509e-01,-3.510733200000000220e-01,-3.124381649999999899e-01,-7.477399999999999602e-01,3.647139999999999826e+00,1.190280000000000005e+00
8.997169350000000509e-01,-3.510733200000000220e-01,-3.124381649999999899e-01,-7.477399999999999602e-01,3.647139999999999826e+00,1.190280000000000005e+00
8.983741650000000023e-01,-3.487539900000000137e-01,-3.104240100000000280e-01,-3.662400000000000100e-01,3.174080000000000013e+00,1.617559999999999887e+00
8.983741650000000023e-01,-3.487539900000000137e-01,-3.104240100000000280e-01,-3.662400000000000100e-01,3.174080000000000013e+00,1.617559999999999887e+00
8.983741650000000023e-01,-3.487539900000000137e-01,-3.104240100000000280e-01,-3.662400000000000100e-01,3.174080000000000013e+00,1.617559999999999887e+00
8.983741650000000023e-01,-3.487539900000000137e-01,-3.104240100000000280e-01,-3.662400000000000100e-01,3.174080000000000013e+00,1.617559999999999887e+00
8.983741650000000023e-01,-3.487539900000000137e-01,-3.104240100000000280e-01,-3.662400000000000100e-01,3.174080000000000013e+00,1.617559999999999887e+00
8.983741650000000023e-01,-3.487539900000000137e-01,-3.104240100000000280e-01,-3.662400000000000100e-01,3.174080000000000013e+00,1.617559999999999887e+00
8.983741650000000023e-01,-3.487539900000000137e-01,-3.104240100000000280e-01,-3.662400000000000100e-01,3.174080000000000013e+00,1.617559999999999887e+00
8.983741650000000023e-01,-3.487539900000000137e-01,-3.104240100000000280e-01,-3.662400000000000100e-01,3.174080000000000013e+00,1.617559999999999887e+00
8.983741650000000023e-01,-3.487539900000000137e-01,-3.104240100000000280e-01,-3.662400000000000100e-01,3.174080000000000013e+00,1.617559999999999887e+00
8.983741650000000023e-01,-3.487539900000000137e-01,-3.104240100000000280e-01,-3.662400000000000100e-01,3.174080000000000013e+00,1.617559999999999887e+00
8.961769050000000236e-01,-3.460074149999999849e-01,-3.101188349999999816e-01,-2.182179999999999787e+00,2.227959999999999940e+00,1.754899999999999904e+00
8.961769050000000236e-01,-3.460074149999999849e-01,-3.101188349999999816e-01,-2.182179999999999787e+00,2.227959999999999940e+00,1.754899999999999904e+00
8.961769050000000236e-01,-3.460074149999999849e-01,-3.101188349999999816e-01,-2.182179999999999787e+00,2.227959999999999940e+00,1.754899999999999904e+00
8.961769050000000236e-01,-3.460074149999999849e-01,-3.101188349999999816e-01,-2.182179999999999787e+00,2.227959999999999940e+00,1.754899999999999904e+00
8.961769050000000236e-01,-3.460074149999999849e-01,-3.101188349999999816e-01,-2.182179999999999787e+00,2.227959999999999940e+00,1.754899999999999904e+00
8.961769050000000236e-01,-3.460074149999999849e-01,-3.101188349999999816e-01,-2.182179999999999787e+00,2.227959999999999940e+00,1.754899999999999904e+00
8.961769050000000236e-01,-3.460074149999999849e-01,-3.101188349999999816e-01,-2.182179999999999787e+00,2.227959999999999940e+00,1.754899999999999904e+00
8.961769050000000236e-01,-3.460074149999999849e-01,-3.101188349999999816e-01,-2.182179999999999787e+00,2.227959999999999940e+00,1.754899999999999904e+00
8.961769050000000236e-01,-3.460074149999999849e-01,-3.101188349999999816e-01,-2.182179999999999787e+00,2.227959999999999940e+00,1.754899999999999904e+00
8.961769050000000236e-01,-3.460074149999999849e-01,-3.101188349999999816e-01,-2.182179999999999787e+00,2.227959999999999940e+00,1.754899999999999904e+00
8.949562050000000601e-01,-3.483267449999999932e-01,-3.095084849999999999e-01,-2.441599999999999770e+00,2.151659999999999684e+00,1.556519999999999904e+00
8.949562050000000601e-01,-3.483267449999999932e-01,-3.095084849999999999e-01,-2.441599999999999770e+00,2.151659999999999684e+00,1.556519999999999904e+00
8.949562050000000601e-01,-3.483267449999999932e-01,-3.095084849999999999e-01,-2.441599999999999770e+00,2.151659999999999684e+00,1.556519999999999904e+00
8.949562050000000601e-01,-3.483267449999999932e-01,-3.095084849999999999e-01,-2.441599999999999770e+00,2.151659999999999684e+00,1.556519999999999904e+00
8.949562050000000601e-01,-3.483267449999999932e-01,-3.095084849999999999e-01,-2.441599999999999770e+00,2.151659999999999684e+00,1.556519999999999904e+00
8.949562050000000601e-01,-3.483267449999999932e-01,-3.095084849999999999e-01,-2.441599999999999770e+00,2.151659999999999684e+00,1.556519999999999904e+00
8.949562050000000601e-01,-3.483267449999999932e-01,-3.095084849999999999e-01,-2.441599999999999770e+00,2.151659999999999684e+00,1.556519999999999904e+00
8.949562050000000601e-01,-3.483267449999999932e-01,-3.095084849999999999e-01,-2.441599999999999770e+00,2.151659999999999684e+00,1.556519999999999904e+00
8.949562050000000601e-01,-3.483267449999999932e-01,-3.095084849999999999e-01,-2.441599999999999770e+00,2.151659999999999684e+00,1.556519999999999904e+00
8.949562050000000601e-01,-3.483267449999999932e-01,-3.095084849999999999e-01,-2.441599999999999770e+00,2.151659999999999684e+00,1.556519999999999904e+00
8.950172400000000472e-01,-3.533926500000000304e-01,-3.087150300000000014e-01,-1.007160000000000055e+00,2.029579999999999718e+00,1.052939999999999987e+00
8.950172400000000472e-01,-3.533926500000000304e-01,-3.087150300000000014e-01,-1.007160000000000055e+00,2.029579999999999718e+00,1.052939999999999987e+00
8.950172400000000472e-01,-3.533926500000000304e-01,-3.087150300000000014e-01,-1.007160000000000055e+00,2.029579999999999718e+00,1.052939999999999987e+00
8.950172400000000472e-01,-3.533926500000000304e-01,-3.087150300000000014e-01,-1.007160000000000055e+00,2.029579999999999718e+00,1.052939999999999987e+00
8.950172400000000472e-01,-3.533926500000000304e-01,-3.087150300000000014e-01,-1.007160000000000055e+00,2.029579999999999718e+00,1.052939999999999987e+00
8.950172400000000472e-01,-3.533926500000000304e-01,-3.087150300000000014e-01,-1.007160000000000055e+00,2.029579999999999718e+00,1.052939999999999987e+00
8.950172400000000472e-01,-3.533926500000000304e-01,-3.087150300000000014e-01,-1.007160000000000055e+00,2.029579999999999718e+00,1.052939999999999987e+00
8.950172400000000472e-01,-3.533926500000000304e-01,-3.087150300000000014e-01,-1.007160000000000055e+00,2.029579999999999718e+00,1.052939999999999987e+00
8.950172400000000472e-01,-3.533926500000000304e-01,-3.087150300000000014e-01,-1.007160000000000055e+00,2.029579999999999718e+00,1.052939999999999987e+00
8.950172400000000472e-01,-3.533926500000000304e-01,-3.087150300000000014e-01,-1.007160000000000055e+00,2.029579999999999718e+00,1.052939999999999987e+00
8.966041500000000442e-01,-3.553457700000000052e-01,-3.083488200000000234e-01,2.441599999999999882e-01,1.220799999999999885e+00,1.327620000000000022e+00
8.966041500000000442e-01,-3.553457700000000052e-01,-3.083488200000000234e-01,2.441599999999999882e-01,1.220799999999999885e+00,1.327620000000000022e+00
8.966041500000000442e-01,-3.553457700000000052e-01,-3.083488200000000234e-01,2.441599999999999882e-01,1.220799999999999885e+00,1.327620000000000022e+00
8.966041500000000442e-01,-3.553457700000000052e-01,-3.083488200000000234e-01,2.441599999999999882e-01,1.220799999999999885e+00,1.327620000000000022e+00
8.966041500000000442e-01,-3.553457700000000052e-01,-3.083488200000000234e-01,2.441599999999999882e-01,1.220799999999999885e+00,1.327620000000000022e+00
8.966041500000000442e-01,-3.553457700000000052e-01,-3.083488200000000234e-01,2.441599999999999882e-01,1.220799999999999885e+00,1.327620000000000022e+00
8.966041500000000442e-01,-3.553457700000000052e-01,-3.083488200000000234e-01,2.441599999999999882e-01,1.220799999999999885e+00,1.327620000000000022e+00
8.966041500000000442e-01,-3.553457700000000052e-01,-3.083488200000000234e-01,2.441599999999999882e-01,1.220799999999999885e+00,1.327620000000000022e+00
8.966041500000000442e-01,-3.553457700000000052e-01,-3.083488200000000234e-01,2.441599999999999882e-01,1.220799999999999885e+00,1.327620000000000022e+00
8.966041500000000442e-01,-3.553457700000000052e-01,-3.083488200000000234e-01,2.441599999999999882e-01,1.220799999999999885e+00,1.327620000000000022e+00
8.973976049999999871e-01,-3.549795600000000273e-01,-3.071281200000000045e-01,7.782599999999999518e-01,1.175019999999999953e+00,1.403919999999999835e+00
8.973976049999999871e-01,-3.549795600000000273e-01,-3.071281200000000045e-01,7.782599999999999518e-01,1.175019999999999953e+00,1.403919999999999835e+00
8.973976049999999871e-01,-3.549795600000000273e-01,-3.071281200000000045e-01,7.782599999999999518e-01,1.175019999999999953e+00,1.403919999999999835e+00
8.973976049999999871e-01,-3.549795600000000273e-01,-3.071281200000000045e-01,7.782599999999999518e-01,1.175019999999999953e+00,1.403919999999999835e+00
8.973976049999999871e-01,-3.549795600000000273e-01,-3.071281200000000045e-01,7.782599999999999518e-01,1.175019999999999953e+00,1.403919999999999835e+00
8.973976049999999871e-01,-3.549795600000000273e-01,-3.071281200000000045e-01,7.782599999999999518e-01,1.175019999999999953e+00,1.403919999999999835e+00
8.973976049999999871e-01,-3.549795600000000273e-01,-3.071281200000000045e-01,7.782599999999999518e-01,1.175019999999999953e+00,1.403919999999999835e+00
8.973976049999999871e-01,-3.549795600000000273e-01,-3.071281200000000045e-01,7.782599999999999518e-01,1.175019999999999953e+00,1.403919999999999835e+00
8.973976049999999871e-01,-3.549795600000000273e-01,-3.071281200000000045e-01,7.782599999999999518e-01,1.175019999999999953e+00,1.403919999999999835e+00
8.973976049999999871e-01,-3.549795600000000273e-01,-3.071281200000000045e-01,7.782599999999999518e-01,1.175019999999999953e+00,1.403919999999999835e+00
8.961769050000000236e-01,-3.527212650000000060e-01,-3.071281200000000045e-01,1.983800000000000008e-01,1.236059999999999937e+00,1.434439999999999937e+00
8.961769050000000236e-01,-3.527212650000000060e-01,-3.071281200000000045e-01,1.983800000000000008e-01,1.236059999999999937e+00,1.434439999999999937e+00
8.961769050000000236e-01,-3.527212650000000060e-01,-3.071281200000000045e-01,1.983800000000000008e-01,1.236059999999999937e+00,1.434439999999999937e+00
8.961769050000000236e-01,-3.527212650000000060e-01,-3.071281200000000045e-01,1.983800000000000008e-01,1.236059999999999937e+00,1.434439999999999937e+00
8.961769050000000236e-01,-3.527212650000000060e-01,-3.071281200000000045e-01,1.983800000000000008e-01,1.236059999999999937e+00,1.434439999999999937e+00
8.961769050000000236e-01,-3.527212650000000060e-01,-3.071281200000000045e-01,1.983800000000000008e-01,1.236059999999999937e+00,1.434439999999999937e+00
8.961769050000000236e-01,-3.527212650000000060e-01,-3.071281200000000045e-01,1.983800000000000008e-01,1.236059999999999937e+00,1.434439999999999937e+00
8.961769050000000236e-01,-3.527212650000000060e-01,-3.071281200000000045e-01,1.983800000000000008e-01,1.236059999999999937e+00,1.434439999999999937e+00
8.961769050000000236e-01,-3.527212650000000060e-01,-3.071281200000000045e-01,1.983800000000000008e-01,1.236059999999999937e+00,1.434439999999999937e+00
8.961769050000000236e-01,-3.527212650000000060e-01,-3.071281200000000045e-01,1.983800000000000008e-01,1.236059999999999937e+00,1.434439999999999937e+00
8.951393100000000214e-01,-3.530874749999999840e-01,-3.073722600000000083e-01,-9.156000000000000250e-02,4.577999999999999847e-01,1.297099999999999920e+00
8.951393100000000214e-01,-3.530874749999999840e-01,-3.073722600000000083e-01,-9.156000000000000250e-02,4.577999999999999847e-01,1.297099999999999920e+00
8.951393100000000214e-01,-3.530874749999999840e-01,-3.073722600000000083e-01,-9.156000000000000250e-02,4.577999999999999847e-01,1.297099999999999920e+00
8.951393100000000214e-01,-3.530874749999999840e-01,-3.073722600000000083e-01,-9.156000000000000250e-02,4.577999999999999847e-01,1.297099999999999920e+00
8.951393100000000214e-01,-3.530874749999999840e-01,-3.073722600000000083e-01,-9.156000000000000250e-02,4.577999999999999847e-01,1.297099999999999920e+00
8.951393100000000214e-01,-3.530874749999999840e-01,-3.073722600000000083e-01,-9.156000000000000250e-02,4.577999999999999847e-01,1.297099999999999920e+00
8.951393100000000214e-01,-3.530874749999999840e-01,-3.073722600000000083e-01,-9.156000000000000250e-02,4.577999999999999847e-01,1.297099999999999920e+00
8.951393100000000214e-01,-3.530874749999999840e-01,-3.073722600000000083e-01,-9.156000000000000250e-02,4.577999999999999847e-01,1.297099999999999920e+00
8.951393100000000214e-01,-3.530874749999999840e-01,-3.073722600000000083e-01,-9.156000000000000250e-02,4.577999999999999847e-01,1.297099999999999920e+00
8.951393100000000214e-01,-3.530874749999999840e-01,-3.073722600000000083e-01,-9.156000000000000250e-02,4.577999999999999847e-01,1.297099999999999920e+00
8.945289600000000396e-01,-3.547964550000000106e-01,-3.081046800000000196e-01,-1.525999999999999926e-02,6.256599999999999939e-01,1.571779999999999955e+00
8.945289600000000396e-01,-3.547964550000000106e-01,-3.081046800000000196e-01,-1.525999999999999926e-02,6.256599999999999939e-01,1.571779999999999955e+00
8.945289600000000396e-01,-3.547964550000000106e-01,-3.081046800000000196e-01,-1.525999999999999926e-02,6.256599999999999939e-01,1.571779999999999955e+00
8.945289600000000396e-01,-3.547964550000000106e-01,-3.081046800000000196e-01,-1.525999999999999926e-02,6.256599999999999939e-01,1.571779999999999955e+00
8.945289600000000396e-01,-3.547964550000000106e-01,-3.081046800000000196e-01,-1.525999999999999926e-02,6.256599999999999939e-01,1.571779999999999955e+00
8.945289600000000396e-01,-3.547964550000000106e-01,-3.081046800000000196e-01,-1.525999999999999926e-02,6.256599999999999939e-01,1.571779999999999955e+00
8.945289600000000396e-01,-3.547964550000000106e-01,-3.081046800000000196e-01,-1.525999999999999926e-02,6.256599999999999939e-01,1.571779999999999955e+00
8.945289600000000396e-01,-3.547964550000000106e-01,-3.081046800000000196e-01,-1.525999999999999926e-02,6.256599999999999939e-01,1.571779999999999955e+00
8.945289600000000396e-01,-3.547964550000000106e-01,-3.081046800000000196e-01,-1.525999999999999926e-02,6.256599999999999939e-01,1.571779999999999955e+00
8.945289600000000396e-01,-3.547964550000000106e-01,-3.081046800000000196e-01,-1.525999999999999926e-02,6.256599999999999939e-01,1.571779999999999955e+00
8.947730999999999879e-01,-3.560781900000000166e-01,-3.089591700000000052e-01,1.632819999999999938e+00,4.883199999999999763e-01,6.561799999999999855e-01
8.947730999999999879e-01,-3.560781900000000166e-01,-3.089591700000000052e-01,1.632819999999999938e+00,4.883199999999999763e-01,6.561799999999999855e-01
8.947730999999999879e-01,-3.560781900000000166e-01,-3.089591700000000052e-01,1.632819999999999938e+00,4.883199999999999763e-01,6.561799999999999855e-01
8.947730999999999879e-01,-3.560781900000000166e-01,-3.089591700000000052e-01,1.632819999999999938e+00,4.883199999999999763e-01,6.561799999999999855e-01
8.947730999999999879e-01,-3.560781900000000166e-01,-3.089591700000000052e-01,1.632819999999999938e+00,4.883199999999999763e-01,6.561799999999999855e-01
8.947730999999999879e-01,-3.560781900000000166e-01,-3.089591700000000052e-01,1.632819999999999938e+00,4.883199999999999763e-01,6.561799999999999855e-01
8.947730999999999879e-01,-3.560781900000000166e-01,-3.089591700000000052e-01,1.632819999999999938e+00,4.883199999999999763e-01,6.561799999999999855e-01
8.947730999999999879e-01,-3.560781900000000166e-01,-3.089591700000000052e-01,1.632819999999999938e+00,4.883199999999999763e-01,6.561799999999999855e-01
8.947730999999999879e-01,-3.560781900000000166e-01,-3.089591700000000052e-01,1.632819999999999938e+00,4.883199999999999763e-01,6.561799999999999855e-01
8.947730999999999879e-01,-3.560781900000000166e-01,-3.089591700000000052e-01,1.632819999999999938e+00,4.883199999999999763e-01,6.561799999999999855e-01
8.945289600000000396e-01,-3.543692099999999900e-01,-3.091422750000000219e-01,1.358139999999999903e+00,5.493599999999999595e-01,9.308599999999999097e-01
8.945289600000000396e-01,-3.543692099999999900e-01,-3.091422750000000219e-01,1.358139999999999903e+00,5.493599999999999595e-01,9.308599999999999097e-01
8.945289600000000396e-01,-3.543692099999999900e-01,-3.091422750000000219e-01,1.358139999999999903e+00,5.493599999999999595e-01,9.308599999999999097e-01
8.945289600000000396e-01,-3.543692099999999900e-01,-3.091422750000000219e-01,1.358139999999999903e+00,5.493599999999999595e-01,9.308599999999999097e-01
8.945289600000000396e-01,-3.543692099999999900e-01,-3.091422750000000219e-01,1.358139999999999903e+00,5.493599999999999595e-01,9.308599999999999097e-01
8.945289600000000396e-01,-3.543692099999999900e-01,-3.091422750000000219e-01,1.358139999999999903e+00,5.493599999999999595e-01,9.308599999999999097e-01
8.945289600000000396e-01,-3.543692099999999900e-01,-3.091422750000000219e-01,1.358139999999999903e+00,5.493599999999999595e-01,9.308599999999999097e-01
8.945289600000000396e-01,-3.543692099999999900e-01,-3.091422750000000219e-01,1.358139999999999903e+00,5.493599999999999595e-01,9.308599999999999097e-01
8.945289600000000396e-01,-3.543692099999999900e-01,-3.091422750000000219e-01,1.358139999999999903e+00,5.493599999999999595e-01,9.308599999999999097e-01
8.945289600000000396e-01,-3.543692099999999900e-01,-3.091422750000000219e-01,1.358139999999999903e+00,5.493599999999999595e-01,9.308599999999999097e-01
8.948341349999999750e-01,-3.525381599999999893e-01,-3.089591700000000052e-01,3.509799999999999587e-01,1.220799999999999941e-01,1.251319999999999988e+00
8.948341349999999750e-01,-3.525381599999999893e-01,-3.089591700000000052e-01,3.509799999999999587e-01,1.220799999999999941e-01,1.251319999999999988e+00
8.948341349999999750e-01,-3.525381599999999893e-01,-3.089591700000000052e-01,3.509799999999999587e-01,1.220799999999999941e-01,1.251319999999999988e+00
8.948341349999999750e-01,-3.525381599999999893e-01,-3.089591700000000052e-01,3.509799999999999587e-01,1.220799999999999941e-01,1.251319999999999988e+00
8.948341349999999750e-01,-3.525381599999999893e-01,-3.089591700000000052e-01,3.509799999999999587e-01,1.220799999999999941e-01,1.251319999999999988e+00
8.948341349999999750e-01,-3.525381599999999893e-01,-3.089591700000000052e-01,3.509799999999999587e-01,1.220799999999999941e-01,1.251319999999999988e+00
8.948341349999999750e-01,-3.525381599999999893e-01,-3.089591700000000052e-01,3.509799999999999587e-01,1.220799999999999941e-01,1.251319999999999988e+00
8.948341349999999750e-01,-3.525381599999999893e-01,-3.089591700000000052e-01,3.509799999999999587e-01,1.220799999999999941e-01,1.251319999999999988e+00
8.948341349999999750e-01,-3.525381599999999893e-01,-3.089591700000000052e-01,3.509799999999999587e-01,1.220799999999999941e-01,1.251319999999999988e+00
8.948341349999999750e-01,-3.525381599999999893e-01,-3.089591700000000052e-01,3.509799999999999587e-01,1.220799999999999941e-01,1.251319999999999988e+00
8.958717299999999772e-01,-3.516226350000000167e-01,-3.103629749999999854e-01,-3.204599999999999671e-01,3.967600000000000016e-01,1.358139999999999903e+00
8.958717299999999772e-01,-3.516226350000000167e-01,-3.103629749999999854e-01,-3.204599999999999671e-01,3.967600000000000016e-01,1.358139999999999903e+00
8.958717299999999772e-01,-3.516226350000000167e-01,-3.103629749999999854e-01,-3.204599999999999671e-01,3.967600000000000016e-01,1.358139999999999903e+00
8.958717299999999772e-01,-3.516226350000000167e-01,-3.103629749999999854e-01,-3.204599999999999671e-01,3.967600000000000016e-01,1.358139999999999903e+00
8.958717299999999772e-01,-3.516226350000000167e-01,-3.103629749999999854e-01,-3.204599999999999671e-01,3.967600000000000016e-01,1.358139999999999903e+00
8.958717299999999772e-01,-3.516226350000000167e-01,-3.103629749999999854e-01,-3.204599999999999671e-01,3.967600000000000016e-01,1.358139999999999903e+00
8.958717299999999772e-01,-3.516226350000000167e-01,-3.103629749999999854e-01,-3.204599999999999671e-01,3.967600000000000016e-01,1.358139999999999903e+00
8.958717299999999772e-01,-3.516226350000000167e-01,-3.103629749999999854e-01,-3.204599999999999671e-01,3.967600000000000016e-01,1.358139999999999903e+00
8.958717299999999772e-01,-3.516226350000000167e-01,-3.103629749999999854e-01,-3.204599999999999671e-01,3.967600000000000016e-01,1.358139999999999903e+00
8.958717299999999772e-01,-3.516226350000000167e-01,-3.103629749999999854e-01,-3.204599999999999671e-01,3.967600000000000016e-01,1.358139999999999903e+00
8.953834499999999696e-01,-3.501577949999999939e-01,-3.120109200000000249e-01,-1.037679999999999936e+00,2.609459999999999891e+00,1.068200000000000038e+00
8.953834499999999696e-01,-3.501577949999999939e-01,-3.120109200000000249e-01,-1.037679999999999936e+00,2.609459999999999891e+00,1.068200000000000038e+00
8.953834499999999696e-01,-3.501577949999999939e-01,-3.120109200000000249e-01,-1.037679999999999936e+00,2.609459999999999891e+00,1.068200000000000038e+00
8.953834499999999696e-01,-3.501577949999999939e-01,-3.120109200000000249e-01,-1.037679999999999936e+00,2.609459999999999891e+00,1.068200000000000038e+00
8.953834499999999696e-01,-3.501577949999999939e-01,-3.120109200000000249e-01,-1.037679999999999936e+00,2.609459999999999891e+00,1.068200000000000038e+00
8.953834499999999696e-01,-3.501577949999999939e-01,-3.120109200000000249e-01,-1.037679999999999936e+00,2.609459999999999891e+00,1.068200000000000038e+00
8.953834499999999696e-01,-3.501577949999999939e-01,-3.120109200000000249e-01,-1.037679999999999936e+00,2.609459999999999891e+00,1.068200000000000038e+00
8.953834499999999696e-01,-3.501577949999999939e-01,-3.120109200000000249e-01,-1.037679999999999936e+00,2.609459999999999891e+00,1.068200000000000038e+00
8.953834499999999696e-01,-3.501577949999999939e-01,-3.120109200000000249e-01,-1.037679999999999936e+00,2.609459999999999891e+00,1.068200000000000038e+00
8.953834499999999696e-01,-3.501577949999999939e-01,-3.120109200000000249e-01,-1.037679999999999936e+00,2.609459999999999891e+00,1.068200000000000038e+00
8.919044550000000404e-01,-3.502798650000000236e-01,-3.105460800000000021e-01,-2.105879999999999974e+00,1.831200000000000050e-01,2.746799999999999908e+00
8.919044550000000404e-01,-3.502798650000000236e-01,-3.105460800000000021e-01,-2.105879999999999974e+00,1.831200000000000050e-01,2.746799999999999908e+00
8.919044550000000404e-01,-3.502798650000000236e-01,-3.105460800000000021e-01,-2.105879999999999974e+00,1.831200000000000050e-01,2.746799999999999908e+00
8.919044550000000404e-01,-3.502798650000000236e-01,-3.105460800000000021e-01,-2.105879999999999974e+00,1.831200000000000050e-01,2.746799999999999908e+00
8.919044550000000404e-01,-3.502798650000000236e-01,-3.105460800000000021e-01,-2.105879999999999974e+00,1.831200000000000050e-01,2.746799999999999908e+00
8.919044550000000404e-01,-3.502798650000000236e-01,-3.105460800000000021e-01,-2.105879999999999974e+00,1.831200000000000050e-01,2.746799999999999908e+00
8.919044550000000404e-01,-3.502798650000000236e-01,-3.105460800000000021e-01,-2.105879999999999974e+00,1.831200000000000050e-01,2.746799999999999908e+00
8.919044550000000404e-01,-3.502798650000000236e-01,-3.105460800000000021e-01,-2.105879999999999974e+00,1.831200000000000050e-01,2.746799999999999908e+00
8.919044550000000404e-01,-3.502798650000000236e-01,-3.105460800000000021e-01,-2.105879999999999974e+00,1.831200000000000050e-01,2.746799999999999908e+00
8.919044550000000404e-01,-3.502798650000000236e-01,-3.105460800000000021e-01,-2.105879999999999974e+00,1.831200000000000050e-01,2.746799999999999908e+00
8.980079549999999688e-01,-3.581533800000000212e-01,-3.115836750000000044e-01,6.409199999999999342e-01,1.007160000000000055e+00,-2.472119999999999873e+00
8.980079549999999688e-01,-3.581533800000000212e-01,-3.115836750000000044e-01,6.409199999999999342e-01,1.007160000000000055e+00,-2.472119999999999873e+00
8.980079549999999688e-01,-3.581533800000000212e-01,-3.115836750000000044e-01,6.409199999999999342e-01,1.007160000000000055e+00,-2.472119999999999873e+00
8.980079549999999688e-01,-3.581533800000000212e-01,-3.115836750000000044e-01,6.409199999999999342e-01,1.007160000000000055e+00,-2.472119999999999873e+00
8.980079549999999688e-01,-3.581533800000000212e-01,-3.115836750000000044e-01,6.409199999999999342e-01,1.007160000000000055e+00,-2.472119999999999873e+00
8.980079549999999688e-01,-3.581533800000000212e-01,-3.115836750000000044e-01,6.409199999999999342e-01,1.007160000000000055e+00,-2.472119999999999873e+00
8.980079549999999688e-01,-3.581533800000000212e-01,-3.115836750000000044e-01,6.409199999999999342e-01,1.007160000000000055e+00,-2.472119999999999873e+00
8.980079549999999688e-01,-3.581533800000000212e-01,-3.115836750000000044e-01,6.409199999999999342e-01,1.007160000000000055e+00,-2.472119999999999873e+00
8.980079549999999688e-01,-3.581533800000000212e-01,-3.115836750000000044e-01,6.409199999999999342e-01,1.007160000000000055e+00,-2.472119999999999873e+00
8.980079549999999688e-01,-3.581533800000000212e-01,-3.115836750000000044e-01,6.409199999999999342e-01,1.007160000000000055e+00,-2.472119999999999873e+00
8.964820799999999590e-01,-3.533926500000000304e-01,-3.111564299999999839e-01,1.373399999999999954e+00,1.678599999999999870e+00,4.028640000000000221e+00
8.964820799999999590e-01,-3.533926500000000304e-01,-3.111564299999999839e-01,1.373399999999999954e+00,1.678599999999999870e+00,4.028640000000000221e+00
8.964820799999999590e-01,-3.533926500000000304e-01,-3.111564299999999839e-01,1.373399999999999954e+00,1.678599999999999870e+00,4.028640000000000221e+00
8.964820799999999590e-01,-3.533926500000000304e-01,-3.111564299999999839e-01,1.373399999999999954e+00,1.678599999999999870e+00,4.028640000000000221e+00
8.964820799999999590e-01,-3.533926500000000304e-01,-3.111564299999999839e-01,1.373399999999999954e+00,1.678599999999999870e+00,4.028640000000000221e+00
8.964820799999999590e-01,-3.533926500000000304e-01,-3.111564299999999839e-01,1.373399999999999954e+00,1.678599999999999870e+00,4.028640000000000221e+00
8.964820799999999590e-01,-3.533926500000000304e-01,-3.111564299999999839e-01,1.373399999999999954e+00,1.678599999999999870e+00,4.028640000000000221e+00
8.964820799999999590e-01,-3.533926500000000304e-01,-3.111564299999999839e-01,1.373399999999999954e+00,1.678599999999999870e+00,4.028640000000000221e+00
8.964820799999999590e-01,-3.533926500000000304e-01,-3.111564299999999839e-01,1.373399999999999954e+00,1.678599999999999870e+00,4.028640000000000221e+00
8.964820799999999590e-01,-3.533926500000000304e-01,-3.111564299999999839e-01,1.373399999999999954e+00,1.678599999999999870e+00,4.028640000000000221e+00
8.948341349999999750e-01,-3.533926500000000304e-01,-3.101798700000000242e-01,-1.602299999999999836e+00,7.630000000000000115e-01,7.629999999999999283e-02
8.948341349999999750e-01,-3.533926500000000304e-01,-3.101798700000000242e-01,-1.602299999999999836e+00,7.630000000000000115e-01,7.629999999999999283e-02
8.948341349999999750e-01,-3.533926500000000304e-01,-3.101798700000000242e-01,-1.602299999999999836e+00,7.630000000000000115e-01,7.629999999999999283e-02
8.948341349999999750e-01,-3.533926500000000304e-01,-3.101798700000000242e-01,-1.602299999999999836e+00,7.630000000000000115e-01,7.629999999999999283e-02
8.948341349999999750e-01,-3.533926500000000304e-01,-3.101798700000000242e-01,-1.602299999999999836e+00,7.630000000000000115e-01,7.629999999999999283e-02
8.948341349999999750e-01,-3.533926500000000304e-01,-3.101798700000000242e-01,-1.602299999999999836e+00,7.630000000000000115e-01,7.629999999999999283e-02
8.948341349999999750e-01,-3.533926500000000304e-01,-3.101798700000000242e-01,-1.602299999999999836e+00,7.630000000000000115e-01,7.629999999999999283e-02
8.948341349999999750e-01,-3.533926500000000304e-01,-3.101798700000000242e-01,-1.602299999999999836e+00,7.630000000000000115e-01,7.629999999999999283e-02
8.948341349999999750e-01,-3.533926500000000304e-01,-3.101798700000000242e-01,-1.602299999999999836e+00,7.630000000000000115e-01,7.629999999999999283e-02
8.948341349999999750e-01,-3.533926500000000304e-01,-3.101798700000000242e-01,-1.602299999999999836e+00,7.630000000000000115e-01,7.629999999999999283e-02
8.944068900000000655e-01,-3.516836700000000038e-01,-3.116447099999999915e-01,-9.613799999999999013e-01,1.342879999999999852e+00,1.678599999999999870e+00
8.944068900000000655e-01,-3.516836700000000038e-01,-3.116447099999999915e-01,-9.613799999999999013e-01,1.342879999999999852e+00,1.678599999999999870e+00
8.944068900000000655e-01,-3.516836700000000038e-01,-3.116447099999999915e-01,-9.613799999999999013e-01,1.342879999999999852e+00,1.678599999999999870e+00
8.944068900000000655e-01,-3.516836700000000038e-01,-3.116447099999999915e-01,-9.613799999999999013e-01,1.342879999999999852e+00,1.678599999999999870e+00
8.944068900000000655e-01,-3.516836700000000038e-01,-3.116447099999999915e-01,-9.613799999999999013e-01,1.342879999999999852e+00,1.678599999999999870e+00
8.944068900000000655e-01,-3.516836700000000038e-01,-3.116447099999999915e-01,-9.613799999999999013e-01,1.342879999999999852e+00,1.678599999999999870e+00
8.944068900000000655e-01,-3.516836700000000038e-01,-3.116447099999999915e-01,-9.613799999999999013e-01,1.342879999999999852e+00,1.678599999999999870e+00
8.944068900000000655e-01,-3.516836700000000038e-01,-3.116447099999999915e-01,-9.613799999999999013e-01,1.342879999999999852e+00,1.678599999999999870e+00
8.944068900000000655e-01,-3.516836700000000038e-01,-3.116447099999999915e-01,-9.613799999999999013e-01,1.342879999999999852e+00,1.678599999999999870e+00
8.944068900000000655e-01,-3.516836700000000038e-01,-3.116447099999999915e-01,-9.613799999999999013e-01,1.342879999999999852e+00,1.678599999999999870e+00
8.954444850000000677e-01,-3.533926500000000304e-01,-3.126823049999999937e-01,-1.754899999999999904e+00,1.281839999999999868e+00,8.392999999999999350e-01
8.954444850000000677e-01,-3.533926500000000304e-01,-3.126823049999999937e-01,-1.754899999999999904e+00,1.281839999999999868e+00,8.392999999999999350e-01
8.954444850000000677e-01,-3.533926500000000304e-01,-3.126823049999999937e-01,-1.754899999999999904e+00,1.281839999999999868e+00,8.392999999999999350e-01
8.954444850000000677e-01,-3.533926500000000304e-01,-3.126823049999999937e-01,-1.754899999999999904e+00,1.281839999999999868e+00,8.392999999999999350e-01
8.954444850000000677e-01,-3.533926500000000304e-01,-3.126823049999999937e-01,-1.754899999999999904e+00,1.281839999999999868e+00,8.392999999999999350e-01
8.954444850000000677e-01,-3.533926500000000304e-01,-3.126823049999999937e-01,-1.754899999999999904e+00,1.281839999999999868e+00,8.392999999999999350e-01
8.954444850000000677e-01,-3.533926500000000304e-01,-3.126823049999999937e-01,-1.754899999999999904e+00,1.281839999999999868e+00,8.392999999999999350e-01
8.954444850000000677e-01,-3.533926500000000304e-01,-3.126823049999999937e-01,-1.754899999999999904e+00,1.281839999999999868e+00,8.392999999999999350e-01
8.954444850000000677e-01,-3.533926500000000304e-01,-3.126823049999999937e-01,-1.754899999999999904e+00,1.281839999999999868e+00,8.392999999999999350e-01
8.954444850000000677e-01,-3.533926500000000304e-01,-3.126823049999999937e-01,-1.754899999999999904e+00,1.281839999999999868e+00,8.392999999999999350e-01
8.954444850000000677e-01,-3.552237000000000311e-01,-3.137809349999999831e-01,-1.648079999999999989e+00,1.510739999999999972e+00,1.495479999999999920e+00
8.954444850000000677e-01,-3.552237000000000311e-01,-3.137809349999999831e-01,-1.648079999999999989e+00,1.510739999999999972e+00,1.495479999999999920e+00
8.954444850000000677e-01,-3.552237000000000311e-01,-3.137809349999999831e-01,-1.648079999999999989e+00,1.510739999999999972e+00,1.495479999999999920e+00
8.954444850000000677e-01,-3.552237000000000311e-01,-3.137809349999999831e-01,-1.648079999999999989e+00,1.510739999999999972e+00,1.495479999999999920e+00
8.954444850000000677e-01,-3.552237000000000311e-01,-3.137809349999999831e-01,-1.648079999999999989e+00,1.510739999999999972e+00,1.495479999999999920e+00
8.954444850000000677e-01,-3.552237000000000311e-01,-3.137809349999999831e-01,-1.648079999999999989e+00,1.510739999999999972e+00,1.495479999999999920e+00
8.954444850000000677e-01,-3.552237000000000311e-01,-3.137809349999999831e-01,-1.648079999999999989e+00,1.510739999999999972e+00,1.495479999999999920e+00
8.954444850000000677e-01,-3.552237000000000311e-01,-3.137809349999999831e-01,-1.648079999999999989e+00,1.510739999999999972e+00,1.495479999999999920e+00
8.954444850000000677e-01,-3.552237000000000311e-01,-3.137809349999999831e-01,-1.648079999999999989e+00,1.510739999999999972e+00,1.495479999999999920e+00
8.954444850000000677e-01,-3.552237000000000311e-01,-3.137809349999999831e-01,-1.648079999999999989e+00,1.510739999999999972e+00,1.495479999999999920e+00
8.967262200000000183e-01,-3.555288750000000220e-01,-3.136588650000000089e-01,-7.935200000000000031e-01,2.075359999999999872e+00,1.251319999999999988e+00
8.967262200000000183e-01,-3.555288750000000220e-01,-3.136588650000000089e-01,-7.935200000000000031e-01,2.075359999999999872e+00,1.251319999999999988e+00
8.967262200000000183e-01,-3.555288750000000220e-01,-3.136588650000000089e-01,-7.935200000000000031e-01,2.075359999999999872e+00,1.251319999999999988e+00
8.967262200000000183e-01,-3.555288750000000220e-01,-3.136588650000000089e-01,-7.935200000000000031e-01,2.075359999999999872e+00,1.251319999999999988e+00
8.967262200000000183e-01,-3.555288750000000220e-01,-3.136588650000000089e-01,-7.935200000000000031e-01,2.075359999999999872e+00,1.251319999999999988e+00
8.967262200000000183e-01,-3.555288750000000220e-01,-3.136588650000000089e-01,-7.935200000000000031e-01,2.075359999999999872e+00,1.251319999999999988e+00
8.967262200000000183e-01,-3.555288750000000220e-01,-3.136588650000000089e-01,-7.935200000000000031e-01,2.075359999999999872e+00,1.251319999999999988e+00
8.967262200000000183e-01,-3.555288750000000220e-01,-3.136588650000000089e-01,-7.935200000000000031e-01,2.075359999999999872e+00,1.251319999999999988e+00
8.967262200000000183e-01,-3.555288750000000220e-01,-3.136588650000000089e-01,-7.935200000000000031e-01,2.075359999999999872e+00,1.251319999999999988e+00
8.967262200000000183e-01,-3.555288750000000220e-01,-3.136588650000000089e-01,-7.935200000000000031e-01,2.075359999999999872e+00,1.251319999999999988e+00
8.969093249999999795e-01,-3.535757549999999916e-01,-3.128654100000000104e-01,-1.281839999999999868e+00,2.090619999999999923e+00,1.709119999999999973e+00
8.969093249999999795e-01,-3.535757549999999916e-01,-3.128654100000000104e-01,-1.281839999999999868e+00,2.090619999999999923e+00,1.709119999999999973e+00
8.969093249999999795e-01,-3.535757549999999916e-01,-3.128654100000000104e-01,-1.281839999999999868e+00,2.090619999999999923e+00,1.709119999999999973e+00
8.969093249999999795e-01,-3.535757549999999916e-01,-3.128654100000000104e-01,-1.281839999999999868e+00,2.090619999999999923e+00,1.709119999999999973e+00
8.969093249999999795e-01,-3.535757549999999916e-01,-3.128654100000000104e-01,-1.281839999999999868e+00,2.090619999999999923e+00,1.709119999999999973e+00
8.969093249999999795e-01,-3.535757549999999916e-01,-3.128654100000000104e-01,-1.281839999999999868e+00,2.090619999999999923e+00,1.709119999999999973e+00
8.969093249999999795e-01,-3.535757549999999916e-01,-3.128654100000000104e-01,-1.281839999999999868e+00,2.090619999999999923e+00,1.709119999999999973e+00
8.969093249999999795e-01,-3.535757549999999916e-01,-3.128654100000000104e-01,-1.281839999999999868e+00,2.090619999999999923e+00,1.709119999999999973e+00
8.969093249999999795e-01,-3.535757549999999916e-01,-3.128654100000000104e-01,-1.281839999999999868e+00,2.090619999999999923e+00,1.709119999999999973e+00
8.969093249999999795e-01,-3.535757549999999916e-01,-3.128654100000000104e-01,-1.281839999999999868e+00,2.090619999999999923e+00,1.709119999999999973e+00
8.966651850000000312e-01,-3.534536850000000174e-01,-3.123160950000000158e-01,-2.258480000000000043e+00,2.273740000000000094e+00,1.434439999999999937e+00
8.966651850000000312e-01,-3.534536850000000174e-01,-3.123160950000000158e-01,-2.258480000000000043e+00,2.273740000000000094e+00,1.434439999999999937e+00
8.966651850000000312e-01,-3.534536850000000174e-01,-3.123160950000000158e-01,-2.258480000000000043e+00,2.273740000000000094e+00,1.434439999999999937e+00
8.966651850000000312e-01,-3.534536850000000174e-01,-3.123160950000000158e-01,-2.258480000000000043e+00,2.273740000000000094e+00,1.434439999999999937e+00
8.966651850000000312e-01,-3.534536850000000174e-01,-3.123160950000000158e-01,-2.258480000000000043e+00,2.273740000000000094e+00,1.434439999999999937e+00
8.966651850000000312e-01,-3.534536850000000174e-01,-3.123160950000000158e-01,-2.258480000000000043e+00,2.273740000000000094e+00,1.434439999999999937e+00
