accel_x,accel_y,accel_z,gyro_x,gyro_y,gyro_z
8.898292650000000359e-01,4.621570200000000295e-01,1.781001299999999954e-01,7.324800000000000200e-01,-1.388660000000000005e+00,3.357199999999999629e-01
8.898292650000000359e-01,4.621570200000000295e-01,1.781001299999999954e-01,7.324800000000000200e-01,-1.388660000000000005e+00,3.357199999999999629e-01
8.919044550000000404e-01,4.588000950000000189e-01,1.755976949999999981e-01,1.266580000000000039e+00,-1.587040000000000006e+00,9.003399999999999181e-01
8.919044550000000404e-01,4.588000950000000189e-01,1.755976949999999981e-01,1.266580000000000039e+00,-1.587040000000000006e+00,9.003399999999999181e-01
8.919044550000000404e-01,4.588000950000000189e-01,1.755976949999999981e-01,1.266580000000000039e+00,-1.587040000000000006e+00,9.003399999999999181e-01
8.919044550000000404e-01,4.588000950000000189e-01,1.755976949999999981e-01,1.266580000000000039e+00,-1.587040000000000006e+00,9.003399999999999181e-01
8.919044550000000404e-01,4.588000950000000189e-01,1.755976949999999981e-01,1.266580000000000039e+00,-1.587040000000000006e+00,9.003399999999999181e-01
8.919044550000000404e-01,4.588000950000000189e-01,1.755976949999999981e-01,1.266580000000000039e+00,-1.587040000000000006e+00,9.003399999999999181e-01
8.919044550000000404e-01,4.588000950000000189e-01,1.755976949999999981e-01,1.266580000000000039e+00,-1.587040000000000006e+00,9.003399999999999181e-01
8.919044550000000404e-01,4.588000950000000189e-01,1.755976949999999981e-01,1.266580000000000039e+00,-1.587040000000000006e+00,9.003399999999999181e-01
8.919044550000000404e-01,4.588000950000000189e-01,1.755976949999999981e-01,1.266580000000000039e+00,-1.587040000000000006e+00,9.003399999999999181e-01
8.919044550000000404e-01,4.588000950000000189e-01,1.755976949999999981e-01,1.266580000000000039e+00,-1.587040000000000006e+00,9.003399999999999181e-01
8.926368749999999963e-01,4.556873100000000121e-01,1.755366600000000110e-01,1.831199999999999939e+00,-5.646200000000000108e-01,1.403919999999999835e+00
8.926368749999999963e-01,4.556873100000000121e-01,1.755366600000000110e-01,1.831199999999999939e+00,-5.646200000000000108e-01,1.403919999999999835e+00
8.926368749999999963e-01,4.556873100000000121e-01,1.755366600000000110e-01,1.831199999999999939e+00,-5.646200000000000108e-01,1.403919999999999835e+00
8.926368749999999963e-01,4.556873100000000121e-01,1.755366600000000110e-01,1.831199999999999939e+00,-5.646200000000000108e-01,1.403919999999999835e+00
8.926368749999999963e-01,4.556873100000000121e-01,1.755366600000000110e-01,1.831199999999999939e+00,-5.646200000000000108e-01,1.403919999999999835e+00
8.926368749999999963e-01,4.556873100000000121e-01,1.755366600000000110e-01,1.831199999999999939e+00,-5.646200000000000108e-01,1.403919999999999835e+00
8.926368749999999963e-01,4.556873100000000121e-01,1.755366600000000110e-01,1.831199999999999939e+00,-5.646200000000000108e-01,1.403919999999999835e+00
8.926368749999999963e-01,4.556873100000000121e-01,1.755366600000000110e-01,1.831199999999999939e+00,-5.646200000000000108e-01,1.403919999999999835e+00
8.926368749999999963e-01,4.556873100000000121e-01,1.755366600000000110e-01,1.831199999999999939e+00,-5.646200000000000108e-01,1.403919999999999835e+00
8.926368749999999963e-01,4.556873100000000121e-01,1.755366600000000110e-01,1.831199999999999939e+00,-5.646200000000000108e-01,1.403919999999999835e+00
8.928810150000000556e-01,4.552600649999999916e-01,1.762690799999999947e-01,1.251319999999999988e+00,-1.007160000000000055e+00,8.392999999999999350e-01
8.928810150000000556e-01,4.552600649999999916e-01,1.762690799999999947e-01,1.251319999999999988e+00,-1.007160000000000055e+00,8.392999999999999350e-01
8.928810150000000556e-01,4.552600649999999916e-01,1.762690799999999947e-01,1.251319999999999988e+00,-1.007160000000000055e+00,8.392999999999999350e-01
8.928810150000000556e-01,4.552600649999999916e-01,1.762690799999999947e-01,1.251319999999999988e+00,-1.007160000000000055e+00,8.392999999999999350e-01
8.928810150000000556e-01,4.552600649999999916e-01,1.762690799999999947e-01,1.251319999999999988e+00,-1.007160000000000055e+00,8.392999999999999350e-01
8.928810150000000556e-01,4.552600649999999916e-01,1.762690799999999947e-01,1.251319999999999988e+00,-1.007160000000000055e+00,8.392999999999999350e-01
8.928810150000000556e-01,4.552600649999999916e-01,1.762690799999999947e-01,1.251319999999999988e+00,-1.007160000000000055e+00,8.392999999999999350e-01
8.928810150000000556e-01,4.552600649999999916e-01,1.762690799999999947e-01,1.251319999999999988e+00,-1.007160000000000055e+00,8.392999999999999350e-01
8.928810150000000556e-01,4.552600649999999916e-01,1.762690799999999947e-01,1.251319999999999988e+00,-1.007160000000000055e+00,8.392999999999999350e-01
8.928810150000000556e-01,4.552600649999999916e-01,1.762690799999999947e-01,1.251319999999999988e+00,-1.007160000000000055e+00,8.392999999999999350e-01
8.930641200000000168e-01,4.584338849999999854e-01,1.738276800000000122e-01,2.487379999999999924e+00,-8.545599999999999863e-01,1.709119999999999973e+00
8.930641200000000168e-01,4.584338849999999854e-01,1.738276800000000122e-01,2.487379999999999924e+00,-8.545599999999999863e-01,1.709119999999999973e+00
8.930641200000000168e-01,4.584338849999999854e-01,1.738276800000000122e-01,2.487379999999999924e+00,-8.545599999999999863e-01,1.709119999999999973e+00
8.930641200000000168e-01,4.584338849999999854e-01,1.738276800000000122e-01,2.487379999999999924e+00,-8.545599999999999863e-01,1.709119999999999973e+00
8.930641200000000168e-01,4.584338849999999854e-01,1.738276800000000122e-01,2.487379999999999924e+00,-8.545599999999999863e-01,1.709119999999999973e+00
8.930641200000000168e-01,4.584338849999999854e-01,1.738276800000000122e-01,2.487379999999999924e+00,-8.545599999999999863e-01,1.709119999999999973e+00
8.930641200000000168e-01,4.584338849999999854e-01,1.738276800000000122e-01,2.487379999999999924e+00,-8.545599999999999863e-01,1.709119999999999973e+00
8.930641200000000168e-01,4.584338849999999854e-01,1.738276800000000122e-01,2.487379999999999924e+00,-8.545599999999999863e-01,1.709119999999999973e+00
8.930641200000000168e-01,4.584338849999999854e-01,1.738276800000000122e-01,2.487379999999999924e+00,-8.545599999999999863e-01,1.709119999999999973e+00
8.930641200000000168e-01,4.584338849999999854e-01,1.738276800000000122e-01,2.487379999999999924e+00,-8.545599999999999863e-01,1.709119999999999973e+00
8.934303300000000503e-01,4.578235350000000037e-01,1.679072849999999895e-01,2.716279999999999806e+00,-1.938019999999999854e+00,3.372459999999999791e+00
8.934303300000000503e-01,4.578235350000000037e-01,1.679072849999999895e-01,2.716279999999999806e+00,-1.938019999999999854e+00,3.372459999999999791e+00
8.934303300000000503e-01,4.578235350000000037e-01,1.679072849999999895e-01,2.716279999999999806e+00,-1.938019999999999854e+00,3.372459999999999791e+00
8.934303300000000503e-01,4.578235350000000037e-01,1.679072849999999895e-01,2.716279999999999806e+00,-1.938019999999999854e+00,3.372459999999999791e+00
8.934303300000000503e-01,4.578235350000000037e-01,1.679072849999999895e-01,2.716279999999999806e+00,-1.938019999999999854e+00,3.372459999999999791e+00
8.934303300000000503e-01,4.578235350000000037e-01,1.679072849999999895e-01,2.716279999999999806e+00,-1.938019999999999854e+00,3.372459999999999791e+00
8.934303300000000503e-01,4.578235350000000037e-01,1.679072849999999895e-01,2.716279999999999806e+00,-1.938019999999999854e+00,3.372459999999999791e+00
8.934303300000000503e-01,4.578235350000000037e-01,1.679072849999999895e-01,2.716279999999999806e+00,-1.938019999999999854e+00,3.372459999999999791e+00
8.934303300000000503e-01,4.578235350000000037e-01,1.679072849999999895e-01,2.716279999999999806e+00,-1.938019999999999854e+00,3.372459999999999791e+00
8.934303300000000503e-01,4.578235350000000037e-01,1.679072849999999895e-01,2.716279999999999806e+00,-1.938019999999999854e+00,3.372459999999999791e+00
8.959327649999999643e-01,4.517810700000000068e-01,1.635127650000000044e-01,1.251319999999999988e+00,-5.798799999999999510e-01,2.594199999999999839e+00
8.959327649999999643e-01,4.517810700000000068e-01,1.635127650000000044e-01,1.251319999999999988e+00,-5.798799999999999510e-01,2.594199999999999839e+00
8.959327649999999643e-01,4.517810700000000068e-01,1.635127650000000044e-01,1.251319999999999988e+00,-5.798799999999999510e-01,2.594199999999999839e+00
8.959327649999999643e-01,4.517810700000000068e-01,1.635127650000000044e-01,1.251319999999999988e+00,-5.798799999999999510e-01,2.594199999999999839e+00
8.959327649999999643e-01,4.517810700000000068e-01,1.635127650000000044e-01,1.251319999999999988e+00,-5.798799999999999510e-01,2.594199999999999839e+00
8.959327649999999643e-01,4.517810700000000068e-01,1.635127650000000044e-01,1.251319999999999988e+00,-5.798799999999999510e-01,2.594199999999999839e+00
8.959327649999999643e-01,4.517810700000000068e-01,1.635127650000000044e-01,1.251319999999999988e+00,-5.798799999999999510e-01,2.594199999999999839e+00
8.959327649999999643e-01,4.517810700000000068e-01,1.635127650000000044e-01,1.251319999999999988e+00,-5.798799999999999510e-01,2.594199999999999839e+00
8.959327649999999643e-01,4.517810700000000068e-01,1.635127650000000044e-01,1.251319999999999988e+00,-5.798799999999999510e-01,2.594199999999999839e+00
8.959327649999999643e-01,4.517810700000000068e-01,1.635127650000000044e-01,1.251319999999999988e+00,-5.798799999999999510e-01,2.594199999999999839e+00
8.975196749999999613e-01,4.461048149999999879e-01,1.644893249999999918e-01,1.434439999999999937e+00,8.545599999999999863e-01,3.967600000000000016e-01
8.975196749999999613e-01,4.461048149999999879e-01,1.644893249999999918e-01,1.434439999999999937e+00,8.545599999999999863e-01,3.967600000000000016e-01
8.975196749999999613e-01,4.461048149999999879e-01,1.644893249999999918e-01,1.434439999999999937e+00,8.545599999999999863e-01,3.967600000000000016e-01
8.975196749999999613e-01,4.461048149999999879e-01,1.644893249999999918e-01,1.434439999999999937e+00,8.545599999999999863e-01,3.967600000000000016e-01
8.975196749999999613e-01,4.461048149999999879e-01,1.644893249999999918e-01,1.434439999999999937e+00,8.545599999999999863e-01,3.967600000000000016e-01
8.975196749999999613e-01,4.461048149999999879e-01,1.644893249999999918e-01,1.434439999999999937e+00,8.545599999999999863e-01,3.967600000000000016e-01
8.975196749999999613e-01,4.461048149999999879e-01,1.644893249999999918e-01,1.434439999999999937e+00,8.545599999999999863e-01,3.967600000000000016e-01
8.975196749999999613e-01,4.461048149999999879e-01,1.644893249999999918e-01,1.434439999999999937e+00,8.545599999999999863e-01,3.967600000000000016e-01
8.975196749999999613e-01,4.461048149999999879e-01,1.644893249999999918e-01,1.434439999999999937e+00,8.545599999999999863e-01,3.967600000000000016e-01
8.975196749999999613e-01,4.461048149999999879e-01,1.644893249999999918e-01,1.434439999999999937e+00,8.545599999999999863e-01,3.967600000000000016e-01
8.978858849999999947e-01,4.469593050000000289e-01,1.666255500000000112e-01,2.746799999999999797e-01,5.035800000000000276e-01,-1.236059999999999937e+00
8.978858849999999947e-01,4.469593050000000289e-01,1.666255500000000112e-01,2.746799999999999797e-01,5.035800000000000276e-01,-1.236059999999999937e+00
8.978858849999999947e-01,4.469593050000000289e-01,1.666255500000000112e-01,2.746799999999999797e-01,5.035800000000000276e-01,-1.236059999999999937e+00
8.978858849999999947e-01,4.469593050000000289e-01,1.666255500000000112e-01,2.746799999999999797e-01,5.035800000000000276e-01,-1.236059999999999937e+00
8.978858849999999947e-01,4.469593050000000289e-01,1.666255500000000112e-01,2.746799999999999797e-01,5.035800000000000276e-01,-1.236059999999999937e+00
8.978858849999999947e-01,4.469593050000000289e-01,1.666255500000000112e-01,2.746799999999999797e-01,5.035800000000000276e-01,-1.236059999999999937e+00
8.978858849999999947e-01,4.469593050000000289e-01,1.666255500000000112e-01,2.746799999999999797e-01,5.035800000000000276e-01,-1.236059999999999937e+00
8.978858849999999947e-01,4.469593050000000289e-01,1.666255500000000112e-01,2.746799999999999797e-01,5.035800000000000276e-01,-1.236059999999999937e+00
8.978858849999999947e-01,4.469593050000000289e-01,1.666255500000000112e-01,2.746799999999999797e-01,5.035800000000000276e-01,-1.236059999999999937e+00
8.978858849999999947e-01,4.469593050000000289e-01,1.666255500000000112e-01,2.746799999999999797e-01,5.035800000000000276e-01,-1.236059999999999937e+00
8.947730999999999879e-01,4.525745250000000053e-01,1.696773000000000031e-01,4.425399999999999889e-01,2.441599999999999882e-01,-2.853619999999999823e+00
8.947730999999999879e-01,4.525745250000000053e-01,1.696773000000000031e-01,4.425399999999999889e-01,2.441599999999999882e-01,-2.853619999999999823e+00
8.947730999999999879e-01,4.525745250000000053e-01,1.696773000000000031e-01,4.425399999999999889e-01,2.441599999999999882e-01,-2.853619999999999823e+00
8.947730999999999879e-01,4.525745250000000053e-01,1.696773000000000031e-01,4.425399999999999889e-01,2.441599999999999882e-01,-2.853619999999999823e+00
8.947730999999999879e-01,4.525745250000000053e-01,1.696773000000000031e-01,4.425399999999999889e-01,2.441599999999999882e-01,-2.853619999999999823e+00
8.947730999999999879e-01,4.525745250000000053e-01,1.696773000000000031e-01,4.425399999999999889e-01,2.441599999999999882e-01,-2.853619999999999823e+00
8.947730999999999879e-01,4.525745250000000053e-01,1.696773000000000031e-01,4.425399999999999889e-01,2.441599999999999882e-01,-2.853619999999999823e+00
8.947730999999999879e-01,4.525745250000000053e-01,1.696773000000000031e-01,4.425399999999999889e-01,2.441599999999999882e-01,-2.853619999999999823e+00
8.947730999999999879e-01,4.525745250000000053e-01,1.696773000000000031e-01,4.425399999999999889e-01,2.441599999999999882e-01,-2.853619999999999823e+00
8.947730999999999879e-01,4.525745250000000053e-01,1.696773000000000031e-01,4.425399999999999889e-01,2.441599999999999882e-01,-2.853619999999999823e+00
8.921485949999999887e-01,4.572131850000000219e-01,1.727900850000000099e-01,-6.866999999999999771e-01,-6.103999999999999426e-01,-2.792580000000000062e+00
8.921485949999999887e-01,4.572131850000000219e-01,1.727900850000000099e-01,-6.866999999999999771e-01,-6.103999999999999426e-01,-2.792580000000000062e+00
8.921485949999999887e-01,4.572131850000000219e-01,1.727900850000000099e-01,-6.866999999999999771e-01,-6.103999999999999426e-01,-2.792580000000000062e+00
8.921485949999999887e-01,4.572131850000000219e-01,1.727900850000000099e-01,-6.866999999999999771e-01,-6.103999999999999426e-01,-2.792580000000000062e+00
8.921485949999999887e-01,4.572131850000000219e-01,1.727900850000000099e-01,-6.866999999999999771e-01,-6.103999999999999426e-01,-2.792580000000000062e+00
8.921485949999999887e-01,4.572131850000000219e-01,1.727900850000000099e-01,-6.866999999999999771e-01,-6.103999999999999426e-01,-2.792580000000000062e+00
8.921485949999999887e-01,4.572131850000000219e-01,1.727900850000000099e-01,-6.866999999999999771e-01,-6.103999999999999426e-01,-2.792580000000000062e+00
8.921485949999999887e-01,4.572131850000000219e-01,1.727900850000000099e-01,-6.866999999999999771e-01,-6.103999999999999426e-01,-2.792580000000000062e+00
8.921485949999999887e-01,4.572131850000000219e-01,1.727900850000000099e-01,-6.866999999999999771e-01,-6.103999999999999426e-01,-2.792580000000000062e+00
8.921485949999999887e-01,4.572131850000000219e-01,1.727900850000000099e-01,-6.866999999999999771e-01,-6.103999999999999426e-01,-2.792580000000000062e+00
8.911109999999999864e-01,4.588000950000000189e-01,1.724238750000000042e-01,-1.022419999999999884e+00,-2.151659999999999684e+00,-1.709119999999999973e+00
8.911109999999999864e-01,4.588000950000000189e-01,1.724238750000000042e-01,-1.022419999999999884e+00,-2.151659999999999684e+00,-1.709119999999999973e+00
8.911109999999999864e-01,4.588000950000000189e-01,1.724238750000000042e-01,-1.022419999999999884e+00,-2.151659999999999684e+00,-1.709119999999999973e+00
8.911109999999999864e-01,4.588000950000000189e-01,1.724238750000000042e-01,-1.022419999999999884e+00,-2.151659999999999684e+00,-1.709119999999999973e+00
8.911109999999999864e-01,4.588000950000000189e-01,1.724238750000000042e-01,-1.022419999999999884e+00,-2.151659999999999684e+00,-1.709119999999999973e+00
8.911109999999999864e-01,4.588000950000000189e-01,1.724238750000000042e-01,-1.022419999999999884e+00,-2.151659999999999684e+00,-1.709119999999999973e+00
8.911109999999999864e-01,4.588000950000000189e-01,1.724238750000000042e-01,-1.022419999999999884e+00,-2.151659999999999684e+00,-1.709119999999999973e+00
8.911109999999999864e-01,4.588000950000000189e-01,1.724238750000000042e-01,-1.022419999999999884e+00,-2.151659999999999684e+00,-1.709119999999999973e+00
8.911109999999999864e-01,4.588000950000000189e-01,1.724238750000000042e-01,-1.022419999999999884e+00,-2.151659999999999684e+00,-1.709119999999999973e+00
8.911109999999999864e-01,4.588000950000000189e-01,1.724238750000000042e-01,-1.022419999999999884e+00,-2.151659999999999684e+00,-1.709119999999999973e+00
8.946510300000000138e-01,4.581287099999999946e-01,1.667476200000000131e-01,-1.953279999999999905e+00,-8.545599999999999863e-01,-4.578000000000000125e-02
8.946510300000000138e-01,4.581287099999999946e-01,1.667476200000000131e-01,-1.953279999999999905e+00,-8.545599999999999863e-01,-4.578000000000000125e-02
8.946510300000000138e-01,4.581287099999999946e-01,1.667476200000000131e-01,-1.953279999999999905e+00,-8.545599999999999863e-01,-4.578000000000000125e-02
8.946510300000000138e-01,4.581287099999999946e-01,1.667476200000000131e-01,-1.953279999999999905e+00,-8.545599999999999863e-01,-4.578000000000000125e-02
8.946510300000000138e-01,4.581287099999999946e-01,1.667476200000000131e-01,-1.953279999999999905e+00,-8.545599999999999863e-01,-4.578000000000000125e-02
8.946510300000000138e-01,4.581287099999999946e-01,1.667476200000000131e-01,-1.953279999999999905e+00,-8.545599999999999863e-01,-4.578000000000000125e-02
8.946510300000000138e-01,4.581287099999999946e-01,1.667476200000000131e-01,-1.953279999999999905e+00,-8.545599999999999863e-01,-4.578000000000000125e-02
8.946510300000000138e-01,4.581287099999999946e-01,1.667476200000000131e-01,-1.953279999999999905e+00,-8.545599999999999863e-01,-4.578000000000000125e-02
8.946510300000000138e-01,4.581287099999999946e-01,1.667476200000000131e-01,-1.953279999999999905e+00,-8.545599999999999863e-01,-4.578000000000000125e-02
8.946510300000000138e-01,4.581287099999999946e-01,1.667476200000000131e-01,-1.953279999999999905e+00,-8.545599999999999863e-01,-4.578000000000000125e-02
8.953224149999999826e-01,4.539172949999999984e-01,1.660762349999999887e-01,-6.256599999999999939e-01,8.240399999999999947e-01,7.629999999999999283e-02
8.953224149999999826e-01,4.539172949999999984e-01,1.660762349999999887e-01,-6.256599999999999939e-01,8.240399999999999947e-01,7.629999999999999283e-02
8.953224149999999826e-01,4.539172949999999984e-01,1.660762349999999887e-01,-6.256599999999999939e-01,8.240399999999999947e-01,7.629999999999999283e-02
8.953224149999999826e-01,4.539172949999999984e-01,1.660762349999999887e-01,-6.256599999999999939e-01,8.240399999999999947e-01,7.629999999999999283e-02
8.953224149999999826e-01,4.539172949999999984e-01,1.660762349999999887e-01,-6.256599999999999939e-01,8.240399999999999947e-01,7.629999999999999283e-02
8.953224149999999826e-01,4.539172949999999984e-01,1.660762349999999887e-01,-6.256599999999999939e-01,8.240399999999999947e-01,7.629999999999999283e-02
8.953224149999999826e-01,4.539172949999999984e-01,1.660762349999999887e-01,-6.256599999999999939e-01,8.240399999999999947e-01,7.629999999999999283e-02
8.953224149999999826e-01,4.539172949999999984e-01,1.660762349999999887e-01,-6.256599999999999939e-01,8.240399999999999947e-01,7.629999999999999283e-02
8.953224149999999826e-01,4.539172949999999984e-01,1.660762349999999887e-01,-6.256599999999999939e-01,8.240399999999999947e-01,7.629999999999999283e-02
8.953224149999999826e-01,4.539172949999999984e-01,1.660762349999999887e-01,-6.256599999999999939e-01,8.240399999999999947e-01,7.629999999999999283e-02
8.959327649999999643e-01,4.526965949999999794e-01,1.688228099999999898e-01,4.730599999999999805e-01,2.578939999999999788e+00,4.577999999999999847e-01
8.959327649999999643e-01,4.526965949999999794e-01,1.688228099999999898e-01,4.730599999999999805e-01,2.578939999999999788e+00,4.577999999999999847e-01
8.959327649999999643e-01,4.526965949999999794e-01,1.688228099999999898e-01,4.730599999999999805e-01,2.578939999999999788e+00,4.577999999999999847e-01
8.959327649999999643e-01,4.526965949999999794e-01,1.688228099999999898e-01,4.730599999999999805e-01,2.578939999999999788e+00,4.577999999999999847e-01
8.959327649999999643e-01,4.526965949999999794e-01,1.688228099999999898e-01,4.730599999999999805e-01,2.578939999999999788e+00,4.577999999999999847e-01
8.959327649999999643e-01,4.526965949999999794e-01,1.688228099999999898e-01,4.730599999999999805e-01,2.578939999999999788e+00,4.577999999999999847e-01
8.959327649999999643e-01,4.526965949999999794e-01,1.688228099999999898e-01,4.730599999999999805e-01,2.578939999999999788e+00,4.577999999999999847e-01
8.959327649999999643e-01,4.526965949999999794e-01,1.688228099999999898e-01,4.730599999999999805e-01,2.578939999999999788e+00,4.577999999999999847e-01
8.959327649999999643e-01,4.526965949999999794e-01,1.688228099999999898e-01,4.730599999999999805e-01,2.578939999999999788e+00,4.577999999999999847e-01
8.959327649999999643e-01,4.526965949999999794e-01,1.688228099999999898e-01,4.730599999999999805e-01,2.578939999999999788e+00,4.577999999999999847e-01
8.938575749999999598e-01,4.559924850000000029e-01,1.705928250000000035e-01,1.175019999999999953e+00,1.342879999999999852e+00,1.007160000000000055e+00
8.938575749999999598e-01,4.559924850000000029e-01,1.705928250000000035e-01,1.175019999999999953e+00,1.342879999999999852e+00,1.007160000000000055e+00
8.938575749999999598e-01,4.559924850000000029e-01,1.705928250000000035e-01,1.175019999999999953e+00,1.342879999999999852e+00,1.007160000000000055e+00
8.938575749999999598e-01,4.559924850000000029e-01,1.705928250000000035e-01,1.175019999999999953e+00,1.342879999999999852e+00,1.007160000000000055e+00
8.938575749999999598e-01,4.559924850000000029e-01,1.705928250000000035e-01,1.175019999999999953e+00,1.342879999999999852e+00,1.007160000000000055e+00
8.938575749999999598e-01,4.559924850000000029e-01,1.705928250000000035e-01,1.175019999999999953e+00,1.342879999999999852e+00,1.007160000000000055e+00
8.938575749999999598e-01,4.559924850000000029e-01,1.705928250000000035e-01,1.175019999999999953e+00,1.342879999999999852e+00,1.007160000000000055e+00
8.938575749999999598e-01,4.559924850000000029e-01,1.705928250000000035e-01,1.175019999999999953e+00,1.342879999999999852e+00,1.007160000000000055e+00
8.938575749999999598e-01,4.559924850000000029e-01,1.705928250000000035e-01,1.175019999999999953e+00,1.342879999999999852e+00,1.007160000000000055e+00
8.938575749999999598e-01,4.559924850000000029e-01,1.705928250000000035e-01,1.175019999999999953e+00,1.342879999999999852e+00,1.007160000000000055e+00
8.947730999999999879e-01,4.562366250000000067e-01,1.674800399999999967e-01,7.630000000000000115e-01,2.746799999999999797e-01,1.449699999999999989e+00
8.947730999999999879e-01,4.562366250000000067e-01,1.674800399999999967e-01,7.630000000000000115e-01,2.746799999999999797e-01,1.449699999999999989e+00
8.947730999999999879e-01,4.562366250000000067e-01,1.674800399999999967e-01,7.630000000000000115e-01,2.746799999999999797e-01,1.449699999999999989e+00
8.947730999999999879e-01,4.562366250000000067e-01,1.674800399999999967e-01,7.630000000000000115e-01,2.746799999999999797e-01,1.449699999999999989e+00
8.947730999999999879e-01,4.562366250000000067e-01,1.674800399999999967e-01,7.630000000000000115e-01,2.746799999999999797e-01,1.449699999999999989e+00
8.947730999999999879e-01,4.562366250000000067e-01,1.674800399999999967e-01,7.630000000000000115e-01,2.746799999999999797e-01,1.449699999999999989e+00
8.947730999999999879e-01,4.562366250000000067e-01,1.674800399999999967e-01,7.630000000000000115e-01,2.746799999999999797e-01,1.449699999999999989e+00
8.947730999999999879e-01,4.562366250000000067e-01,1.674800399999999967e-01,7.630000000000000115e-01,2.746799999999999797e-01,1.449699999999999989e+00
8.947730999999999879e-01,4.562366250000000067e-01,1.674800399999999967e-01,7.630000000000000115e-01,2.746799999999999797e-01,1.449699999999999989e+00
8.947730999999999879e-01,4.562366250000000067e-01,1.674800399999999967e-01,7.630000000000000115e-01,2.746799999999999797e-01,1.449699999999999989e+00
8.964210449999999719e-01,4.519031399999999810e-01,1.612544700000000109e-01,1.678599999999999814e-01,2.960439999999999738e+00,3.509799999999999587e-01
8.964210449999999719e-01,4.519031399999999810e-01,1.612544700000000109e-01,1.678599999999999814e-01,2.960439999999999738e+00,3.509799999999999587e-01
8.964210449999999719e-01,4.519031399999999810e-01,1.612544700000000109e-01,1.678599999999999814e-01,2.960439999999999738e+00,3.509799999999999587e-01
8.964210449999999719e-01,4.519031399999999810e-01,1.612544700000000109e-01,1.678599999999999814e-01,2.960439999999999738e+00,3.509799999999999587e-01
8.964210449999999719e-01,4.519031399999999810e-01,1.612544700000000109e-01,1.678599999999999814e-01,2.960439999999999738e+00,3.509799999999999587e-01
8.964210449999999719e-01,4.519031399999999810e-01,1.612544700000000109e-01,1.678599999999999814e-01,2.960439999999999738e+00,3.509799999999999587e-01
8.964210449999999719e-01,4.519031399999999810e-01,1.612544700000000109e-01,1.678599999999999814e-01,2.960439999999999738e+00,3.509799999999999587e-01
8.964210449999999719e-01,4.519031399999999810e-01,1.612544700000000109e-01,1.678599999999999814e-01,2.960439999999999738e+00,3.509799999999999587e-01
8.964210449999999719e-01,4.519031399999999810e-01,1.612544700000000109e-01,1.678599999999999814e-01,2.960439999999999738e+00,3.509799999999999587e-01
8.964210449999999719e-01,4.519031399999999810e-01,1.612544700000000109e-01,1.678599999999999814e-01,2.960439999999999738e+00,3.509799999999999587e-01
8.970924300000000517e-01,4.478137950000000145e-01,1.616206799999999888e-01,1.007160000000000055e+00,4.120199999999999640e+00,-2.517900000000000027e+00
8.970924300000000517e-01,4.478137950000000145e-01,1.616206799999999888e-01,1.007160000000000055e+00,4.120199999999999640e+00,-2.517900000000000027e+00
8.970924300000000517e-01,4.478137950000000145e-01,1.616206799999999888e-01,1.007160000000000055e+00,4.120199999999999640e+00,-2.517900000000000027e+00
8.970924300000000517e-01,4.478137950000000145e-01,1.616206799999999888e-01,1.007160000000000055e+00,4.120199999999999640e+00,-2.517900000000000027e+00
8.970924300000000517e-01,4.478137950000000145e-01,1.616206799999999888e-01,1.007160000000000055e+00,4.120199999999999640e+00,-2.517900000000000027e+00
8.970924300000000517e-01,4.478137950000000145e-01,1.616206799999999888e-01,1.007160000000000055e+00,4.120199999999999640e+00,-2.517900000000000027e+00
8.970924300000000517e-01,4.478137950000000145e-01,1.616206799999999888e-01,1.007160000000000055e+00,4.120199999999999640e+00,-2.517900000000000027e+00
8.970924300000000517e-01,4.478137950000000145e-01,1.616206799999999888e-01,1.007160000000000055e+00,4.120199999999999640e+00,-2.517900000000000027e+00
8.970924300000000517e-01,4.478137950000000145e-01,1.616206799999999888e-01,1.007160000000000055e+00,4.120199999999999640e+00,-2.517900000000000027e+00
8.970924300000000517e-01,4.478137950000000145e-01,1.616206799999999888e-01,1.007160000000000055e+00,4.120199999999999640e+00,-2.517900000000000027e+00
8.946510300000000138e-01,4.520862449999999977e-01,1.680293549999999914e-01,2.899399999999999755e-01,4.974759999999999849e+00,-2.823099999999999721e+00
8.946510300000000138e-01,4.520862449999999977e-01,1.680293549999999914e-01,2.899399999999999755e-01,4.974759999999999849e+00,-2.823099999999999721e+00
8.946510300000000138e-01,4.520862449999999977e-01,1.680293549999999914e-01,2.899399999999999755e-01,4.974759999999999849e+00,-2.823099999999999721e+00
8.946510300000000138e-01,4.520862449999999977e-01,1.680293549999999914e-01,2.899399999999999755e-01,4.974759999999999849e+00,-2.823099999999999721e+00
8.946510300000000138e-01,4.520862449999999977e-01,1.680293549999999914e-01,2.899399999999999755e-01,4.974759999999999849e+00,-2.823099999999999721e+00
8.946510300000000138e-01,4.520862449999999977e-01,1.680293549999999914e-01,2.899399999999999755e-01,4.974759999999999849e+00,-2.823099999999999721e+00
8.946510300000000138e-01,4.520862449999999977e-01,1.680293549999999914e-01,2.899399999999999755e-01,4.974759999999999849e+00,-2.823099999999999721e+00
8.946510300000000138e-01,4.520862449999999977e-01,1.680293549999999914e-01,2.899399999999999755e-01,4.974759999999999849e+00,-2.823099999999999721e+00
8.946510300000000138e-01,4.520862449999999977e-01,1.680293549999999914e-01,2.899399999999999755e-01,4.974759999999999849e+00,-2.823099999999999721e+00
8.946510300000000138e-01,4.520862449999999977e-01,1.680293549999999914e-01,2.899399999999999755e-01,4.974759999999999849e+00,-2.823099999999999721e+00
8.900734049999999842e-01,4.591052700000000097e-01,1.752925200000000072e-01,7.629999999999999283e-02,1.968539999999999957e+00,-2.884139999999999926e+00
8.900734049999999842e-01,4.591052700000000097e-01,1.752925200000000072e-01,7.629999999999999283e-02,1.968539999999999957e+00,-2.884139999999999926e+00
8.900734049999999842e-01,4.591052700000000097e-01,1.752925200000000072e-01,7.629999999999999283e-02,1.968539999999999957e+00,-2.884139999999999926e+00
8.900734049999999842e-01,4.591052700000000097e-01,1.752925200000000072e-01,7.629999999999999283e-02,1.968539999999999957e+00,-2.884139999999999926e+00
8.900734049999999842e-01,4.591052700000000097e-01,1.752925200000000072e-01,7.629999999999999283e-02,1.968539999999999957e+00,-2.884139999999999926e+00
8.900734049999999842e-01,4.591052700000000097e-01,1.752925200000000072e-01,7.629999999999999283e-02,1.968539999999999957e+00,-2.884139999999999926e+00
8.900734049999999842e-01,4.591052700000000097e-01,1.752925200000000072e-01,7.629999999999999283e-02,1.968539999999999957e+00,-2.884139999999999926e+00
8.900734049999999842e-01,4.591052700000000097e-01,1.752925200000000072e-01,7.629999999999999283e-02,1.968539999999999957e+00,-2.884139999999999926e+00
8.900734049999999842e-01,4.591052700000000097e-01,1.752925200000000072e-01,7.629999999999999283e-02,1.968539999999999957e+00,-2.884139999999999926e+00
8.900734049999999842e-01,4.591052700000000097e-01,1.752925200000000072e-01,7.629999999999999283e-02,1.968539999999999957e+00,-2.884139999999999926e+00
8.898903000000000230e-01,4.634387549999999800e-01,1.770015000000000061e-01,-6.256599999999999939e-01,5.951400000000000023e-01,-1.175019999999999953e+00
8.898903000000000230e-01,4.634387549999999800e-01,1.770015000000000061e-01,-6.256599999999999939e-01,5.951400000000000023e-01,-1.175019999999999953e+00
8.898903000000000230e-01,4.634387549999999800e-01,1.770015000000000061e-01,-6.256599999999999939e-01,5.951400000000000023e-01,-1.175019999999999953e+00
8.898903000000000230e-01,4.634387549999999800e-01,1.770015000000000061e-01,-6.256599999999999939e-01,5.951400000000000023e-01,-1.175019999999999953e+00
8.898903000000000230e-01,4.634387549999999800e-01,1.770015000000000061e-01,-6.256599999999999939e-01,5.951400000000000023e-01,-1.175019999999999953e+00
8.898903000000000230e-01,4.634387549999999800e-01,1.770015000000000061e-01,-6.256599999999999939e-01,5.951400000000000023e-01,-1.175019999999999953e+00
8.898903000000000230e-01,4.634387549999999800e-01,1.770015000000000061e-01,-6.256599999999999939e-01,5.951400000000000023e-01,-1.175019999999999953e+00
8.898903000000000230e-01,4.634387549999999800e-01,1.770015000000000061e-01,-6.256599999999999939e-01,5.951400000000000023e-01,-1.175019999999999953e+00
8.898903000000000230e-01,4.634387549999999800e-01,1.770015000000000061e-01,-6.256599999999999939e-01,5.951400000000000023e-01,-1.175019999999999953e+00
8.898903000000000230e-01,4.634387549999999800e-01,1.770015000000000061e-01,-6.256599999999999939e-01,5.951400000000000023e-01,-1.175019999999999953e+00
8.916603149999999811e-01,4.601428650000000120e-01,1.735835400000000084e-01,4.578000000000000125e-02,1.022419999999999884e+00,-6.866999999999999771e-01
8.916603149999999811e-01,4.601428650000000120e-01,1.735835400000000084e-01,4.578000000000000125e-02,1.022419999999999884e+00,-6.866999999999999771e-01
8.916603149999999811e-01,4.601428650000000120e-01,1.735835400000000084e-01,4.578000000000000125e-02,1.022419999999999884e+00,-6.866999999999999771e-01
8.916603149999999811e-01,4.601428650000000120e-01,1.735835400000000084e-01,4.578000000000000125e-02,1.022419999999999884e+00,-6.866999999999999771e-01
8.916603149999999811e-01,4.601428650000000120e-01,1.735835400000000084e-01,4.578000000000000125e-02,1.022419999999999884e+00,-6.866999999999999771e-01
8.916603149999999811e-01,4.601428650000000120e-01,1.735835400000000084e-01,4.578000000000000125e-02,1.022419999999999884e+00,-6.866999999999999771e-01
8.916603149999999811e-01,4.601428650000000120e-01,1.735835400000000084e-01,4.578000000000000125e-02,1.022419999999999884e+00,-6.866999999999999771e-01
8.916603149999999811e-01,4.601428650000000120e-01,1.735835400000000084e-01,4.578000000000000125e-02,1.022419999999999884e+00,-6.866999999999999771e-01
8.916603149999999811e-01,4.601428650000000120e-01,1.735835400000000084e-01,4.578000000000000125e-02,1.022419999999999884e+00,-6.866999999999999771e-01
8.916603149999999811e-01,4.601428650000000120e-01,1.735835400000000084e-01,4.578000000000000125e-02,1.022419999999999884e+00,-6.866999999999999771e-01
8.923317000000000609e-01,4.575183600000000128e-01,1.708979999999999944e-01,3.051999999999999852e-02,1.541259999999999852e+00,-7.019599999999999174e-01
8.923317000000000609e-01,4.575183600000000128e-01,1.708979999999999944e-01,3.051999999999999852e-02,1.541259999999999852e+00,-7.019599999999999174e-01
8.923317000000000609e-01,4.575183600000000128e-01,1.708979999999999944e-01,3.051999999999999852e-02,1.541259999999999852e+00,-7.019599999999999174e-01
8.923317000000000609e-01,4.575183600000000128e-01,1.708979999999999944e-01,3.051999999999999852e-02,1.541259999999999852e+00,-7.019599999999999174e-01
8.923317000000000609e-01,4.575183600000000128e-01,1.708979999999999944e-01,3.051999999999999852e-02,1.541259999999999852e+00,-7.019599999999999174e-01
8.923317000000000609e-01,4.575183600000000128e-01,1.708979999999999944e-01,3.051999999999999852e-02,1.541259999999999852e+00,-7.019599999999999174e-01
8.923317000000000609e-01,4.575183600000000128e-01,1.708979999999999944e-01,3.051999999999999852e-02,1.541259999999999852e+00,-7.019599999999999174e-01
8.923317000000000609e-01,4.575183600000000128e-01,1.708979999999999944e-01,3.051999999999999852e-02,1.541259999999999852e+00,-7.019599999999999174e-01
8.923317000000000609e-01,4.575183600000000128e-01,1.708979999999999944e-01,3.051999999999999852e-02,1.541259999999999852e+00,-7.019599999999999174e-01
8.923317000000000609e-01,4.575183600000000128e-01,1.708979999999999944e-01,3.051999999999999852e-02,1.541259999999999852e+00,-7.019599999999999174e-01
8.933082599999999651e-01,4.550769600000000303e-01,1.712642100000000001e-01,-6.103999999999999704e-02,1.709119999999999973e+00,4.730599999999999805e-01
8.933082599999999651e-01,4.550769600000000303e-01,1.712642100000000001e-01,-6.103999999999999704e-02,1.709119999999999973e+00,4.730599999999999805e-01
8.933082599999999651e-01,4.550769600000000303e-01,1.712642100000000001e-01,-6.103999999999999704e-02,1.709119999999999973e+00,4.730599999999999805e-01
8.933082599999999651e-01,4.550769600000000303e-01,1.712642100000000001e-01,-6.103999999999999704e-02,1.709119999999999973e+00,4.730599999999999805e-01
8.933082599999999651e-01,4.550769600000000303e-01,1.712642100000000001e-01,-6.103999999999999704e-02,1.709119999999999973e+00,4.730599999999999805e-01
8.933082599999999651e-01,4.550769600000000303e-01,1.712642100000000001e-01,-6.103999999999999704e-02,1.709119999999999973e+00,4.730599999999999805e-01
8.933082599999999651e-01,4.550769600000000303e-01,1.712642100000000001e-01,-6.103999999999999704e-02,1.709119999999999973e+00,4.730599999999999805e-01
8.933082599999999651e-01,4.550769600000000303e-01,1.712642100000000001e-01,-6.103999999999999704e-02,1.709119999999999973e+00,4.730599999999999805e-01
8.933082599999999651e-01,4.550769600000000303e-01,1.712642100000000001e-01,-6.103999999999999704e-02,1.709119999999999973e+00,4.730599999999999805e-01
8.933082599999999651e-01,4.550769600000000303e-01,1.712642100000000001e-01,-6.103999999999999704e-02,1.709119999999999973e+00,4.730599999999999805e-01
8.931251550000000039e-01,4.552600649999999916e-01,1.730952600000000008e-01,2.746799999999999797e-01,1.938019999999999854e+00,1.251319999999999988e+00
8.931251550000000039e-01,4.552600649999999916e-01,1.730952600000000008e-01,2.746799999999999797e-01,1.938019999999999854e+00,1.251319999999999988e+00
8.931251550000000039e-01,4.552600649999999916e-01,1.730952600000000008e-01,2.746799999999999797e-01,1.938019999999999854e+00,1.251319999999999988e+00
8.931251550000000039e-01,4.552600649999999916e-01,1.730952600000000008e-01,2.746799999999999797e-01,1.938019999999999854e+00,1.251319999999999988e+00
8.931251550000000039e-01,4.552600649999999916e-01,1.730952600000000008e-01,2.746799999999999797e-01,1.938019999999999854e+00,1.251319999999999988e+00
8.931251550000000039e-01,4.552600649999999916e-01,1.730952600000000008e-01,2.746799999999999797e-01,1.938019999999999854e+00,1.251319999999999988e+00
8.931251550000000039e-01,4.552600649999999916e-01,1.730952600000000008e-01,2.746799999999999797e-01,1.938019999999999854e+00,1.251319999999999988e+00
8.931251550000000039e-01,4.552600649999999916e-01,1.730952600000000008e-01,2.746799999999999797e-01,1.938019999999999854e+00,1.251319999999999988e+00
8.931251550000000039e-01,4.552600649999999916e-01,1.730952600000000008e-01,2.746799999999999797e-01,1.938019999999999854e+00,1.251319999999999988e+00
8.931251550000000039e-01,4.552600649999999916e-01,1.730952600000000008e-01,2.746799999999999797e-01,1.938019999999999854e+00,1.251319999999999988e+00
8.923317000000000609e-01,4.572742200000000090e-01,1.709590350000000092e-01,6.103999999999999704e-02,1.449699999999999989e+00,1.342879999999999852e+00
8.923317000000000609e-01,4.572742200000000090e-01,1.709590350000000092e-01,6.103999999999999704e-02,1.449699999999999989e+00,1.342879999999999852e+00
8.923317000000000609e-01,4.572742200000000090e-01,1.709590350000000092e-01,6.103999999999999704e-02,1.449699999999999989e+00,1.342879999999999852e+00
8.923317000000000609e-01,4.572742200000000090e-01,1.709590350000000092e-01,6.103999999999999704e-02,1.449699999999999989e+00,1.342879999999999852e+00
8.923317000000000609e-01,4.572742200000000090e-01,1.709590350000000092e-01,6.103999999999999704e-02,1.449699999999999989e+00,1.342879999999999852e+00
8.923317000000000609e-01,4.572742200000000090e-01,1.709590350000000092e-01,6.103999999999999704e-02,1.449699999999999989e+00,1.342879999999999852e+00
8.923317000000000609e-01,4.572742200000000090e-01,1.709590350000000092e-01,6.103999999999999704e-02,1.449699999999999989e+00,1.342879999999999852e+00
8.923317000000000609e-01,4.572742200000000090e-01,1.709590350000000092e-01,6.103999999999999704e-02,1.449699999999999989e+00,1.342879999999999852e+00
8.923317000000000609e-01,4.572742200000000090e-01,1.709590350000000092e-01,6.103999999999999704e-02,1.449699999999999989e+00,1.342879999999999852e+00
8.923317000000000609e-01,4.572742200000000090e-01,1.709590350000000092e-01,6.103999999999999704e-02,1.449699999999999989e+00,1.342879999999999852e+00
8.947120650000000008e-01,4.574573250000000257e-01,1.670527950000000039e-01,-8.545599999999999863e-01,1.251319999999999988e+00,1.266580000000000039e+00
8.947120650000000008e-01,4.574573250000000257e-01,1.670527950000000039e-01,-8.545599999999999863e-01,1.251319999999999988e+00,1.266580000000000039e+00
8.947120650000000008e-01,4.574573250000000257e-01,1.670527950000000039e-01,-8.545599999999999863e-01,1.251319999999999988e+00,1.266580000000000039e+00
8.947120650000000008e-01,4.574573250000000257e-01,1.670527950000000039e-01,-8.545599999999999863e-01,1.251319999999999988e+00,1.266580000000000039e+00
8.947120650000000008e-01,4.574573250000000257e-01,1.670527950000000039e-01,-8.545599999999999863e-01,1.251319999999999988e+00,1.266580000000000039e+00
8.947120650000000008e-01,4.574573250000000257e-01,1.670527950000000039e-01,-8.545599999999999863e-01,1.251319999999999988e+00,1.266580000000000039e+00
8.947120650000000008e-01,4.574573250000000257e-01,1.670527950000000039e-01,-8.545599999999999863e-01,1.251319999999999988e+00,1.266580000000000039e+00
8.947120650000000008e-01,4.574573250000000257e-01,1.670527950000000039e-01,-8.545599999999999863e-01,1.251319999999999988e+00,1.266580000000000039e+00
8.947120650000000008e-01,4.574573250000000257e-01,1.670527950000000039e-01,-8.545599999999999863e-01,1.251319999999999988e+00,1.266580000000000039e+00
8.947120650000000008e-01,4.574573250000000257e-01,1.670527950000000039e-01,-8.545599999999999863e-01,1.251319999999999988e+00,1.266580000000000039e+00
8.959938000000000624e-01,4.526965949999999794e-01,1.645503600000000066e-01,-1.312359999999999971e+00,3.341939999999999689e+00,5.035800000000000276e-01
8.959938000000000624e-01,4.526965949999999794e-01,1.645503600000000066e-01,-1.312359999999999971e+00,3.341939999999999689e+00,5.035800000000000276e-01
8.959938000000000624e-01,4.526965949999999794e-01,1.645503600000000066e-01,-1.312359999999999971e+00,3.341939999999999689e+00,5.035800000000000276e-01
8.959938000000000624e-01,4.526965949999999794e-01,1.645503600000000066e-01,-1.312359999999999971e+00,3.341939999999999689e+00,5.035800000000000276e-01
8.959938000000000624e-01,4.526965949999999794e-01,1.645503600000000066e-01,-1.312359999999999971e+00,3.341939999999999689e+00,5.035800000000000276e-01
8.959938000000000624e-01,4.526965949999999794e-01,1.645503600000000066e-01,-1.312359999999999971e+00,3.341939999999999689e+00,5.035800000000000276e-01
8.959938000000000624e-01,4.526965949999999794e-01,1.645503600000000066e-01,-1.312359999999999971e+00,3.341939999999999689e+00,5.035800000000000276e-01
8.959938000000000624e-01,4.526965949999999794e-01,1.645503600000000066e-01,-1.312359999999999971e+00,3.341939999999999689e+00,5.035800000000000276e-01
8.959938000000000624e-01,4.526965949999999794e-01,1.645503600000000066e-01,-1.312359999999999971e+00,3.341939999999999689e+00,5.035800000000000276e-01
8.959938000000000624e-01,4.526965949999999794e-01,1.645503600000000066e-01,-1.312359999999999971e+00,3.341939999999999689e+00,5.035800000000000276e-01
8.955665550000000419e-01,4.487903550000000297e-01,1.654658850000000070e-01,-1.068199999999999983e-01,3.357199999999999740e+00,-1.999059999999999837e+00
8.955665550000000419e-01,4.487903550000000297e-01,1.654658850000000070e-01,-1.068199999999999983e-01,3.357199999999999740e+00,-1.999059999999999837e+00
8.955665550000000419e-01,4.487903550000000297e-01,1.654658850000000070e-01,-1.068199999999999983e-01,3.357199999999999740e+00,-1.999059999999999837e+00
8.955665550000000419e-01,4.487903550000000297e-01,1.654658850000000070e-01,-1.068199999999999983e-01,3.357199999999999740e+00,-1.999059999999999837e+00
8.955665550000000419e-01,4.487903550000000297e-01,1.654658850000000070e-01,-1.068199999999999983e-01,3.357199999999999740e+00,-1.999059999999999837e+00
8.955665550000000419e-01,4.487903550000000297e-01,1.654658850000000070e-01,-1.068199999999999983e-01,3.357199999999999740e+00,-1.999059999999999837e+00
8.955665550000000419e-01,4.487903550000000297e-01,1.654658850000000070e-01,-1.068199999999999983e-01,3.357199999999999740e+00,-1.999059999999999837e+00
8.955665550000000419e-01,4.487903550000000297e-01,1.654658850000000070e-01,-1.068199999999999983e-01,3.357199999999999740e+00,-1.999059999999999837e+00
8.955665550000000419e-01,4.487903550000000297e-01,1.654658850000000070e-01,-1.068199999999999983e-01,3.357199999999999740e+00,-1.999059999999999837e+00
8.955665550000000419e-01,4.487903550000000297e-01,1.654658850000000070e-01,-1.068199999999999983e-01,3.357199999999999740e+00,-1.999059999999999837e+00
8.953224149999999826e-01,4.506214050000000304e-01,1.691279850000000085e-01,-1.281839999999999868e+00,5.005279999999999951e+00,-3.296159999999999979e+00
8.953224149999999826e-01,4.506214050000000304e-01,1.691279850000000085e-01,-1.281839999999999868e+00,5.005279999999999951e+00,-3.296159999999999979e+00
8.953224149999999826e-01,4.506214050000000304e-01,1.691279850000000085e-01,-1.281839999999999868e+00,5.005279999999999951e+00,-3.296159999999999979e+00
8.953224149999999826e-01,4.506214050000000304e-01,1.691279850000000085e-01,-1.281839999999999868e+00,5.005279999999999951e+00,-3.296159999999999979e+00
8.953224149999999826e-01,4.506214050000000304e-01,1.691279850000000085e-01,-1.281839999999999868e+00,5.005279999999999951e+00,-3.296159999999999979e+00
8.953224149999999826e-01,4.506214050000000304e-01,1.691279850000000085e-01,-1.281839999999999868e+00,5.005279999999999951e+00,-3.296159999999999979e+00
8.953224149999999826e-01,4.506214050000000304e-01,1.691279850000000085e-01,-1.281839999999999868e+00,5.005279999999999951e+00,-3.296159999999999979e+00
8.953224149999999826e-01,4.506214050000000304e-01,1.691279850000000085e-01,-1.281839999999999868e+00,5.005279999999999951e+00,-3.296159999999999979e+00
8.953224149999999826e-01,4.506214050000000304e-01,1.691279850000000085e-01,-1.281839999999999868e+00,5.005279999999999951e+00,-3.296159999999999979e+00
8.953224149999999826e-01,4.506214050000000304e-01,1.691279850000000085e-01,-1.281839999999999868e+00,5.005279999999999951e+00,-3.296159999999999979e+00
8.917213499999999682e-01,4.550769600000000303e-01,1.752314849999999924e-01,-1.342879999999999852e+00,3.525059999999999860e+00,-4.364359999999999573e+00
8.917213499999999682e-01,4.550769600000000303e-01,1.752314849999999924e-01,-1.342879999999999852e+00,3.525059999999999860e+00,-4.364359999999999573e+00
8.917213499999999682e-01,4.550769600000000303e-01,1.752314849999999924e-01,-1.342879999999999852e+00,3.525059999999999860e+00,-4.364359999999999573e+00
8.917213499999999682e-01,4.550769600000000303e-01,1.752314849999999924e-01,-1.342879999999999852e+00,3.525059999999999860e+00,-4.364359999999999573e+00
8.917213499999999682e-01,4.550769600000000303e-01,1.752314849999999924e-01,-1.342879999999999852e+00,3.525059999999999860e+00,-4.364359999999999573e+00
8.917213499999999682e-01,4.550769600000000303e-01,1.752314849999999924e-01,-1.342879999999999852e+00,3.525059999999999860e+00,-4.364359999999999573e+00
8.917213499999999682e-01,4.550769600000000303e-01,1.752314849999999924e-01,-1.342879999999999852e+00,3.525059999999999860e+00,-4.364359999999999573e+00
8.917213499999999682e-01,4.550769600000000303e-01,1.752314849999999924e-01,-1.342879999999999852e+00,3.525059999999999860e+00,-4.364359999999999573e+00
8.917213499999999682e-01,4.550769600000000303e-01,1.752314849999999924e-01,-1.342879999999999852e+00,3.525059999999999860e+00,-4.364359999999999573e+00
8.917213499999999682e-01,4.550769600000000303e-01,1.752314849999999924e-01,-1.342879999999999852e+00,3.525059999999999860e+00,-4.364359999999999573e+00
8.896461599999999637e-01,4.607532149999999938e-01,1.796260050000000053e-01,-2.044839999999999769e+00,1.175019999999999953e+00,-3.433499999999999996e+00
8.896461599999999637e-01,4.607532149999999938e-01,1.796260050000000053e-01,-2.044839999999999769e+00,1.175019999999999953e+00,-3.433499999999999996e+00
8.896461599999999637e-01,4.607532149999999938e-01,1.796260050000000053e-01,-2.044839999999999769e+00,1.175019999999999953e+00,-3.433499999999999996e+00
8.896461599999999637e-01,4.607532149999999938e-01,1.796260050000000053e-01,-2.044839999999999769e+00,1.175019999999999953e+00,-3.433499999999999996e+00
8.896461599999999637e-01,4.607532149999999938e-01,1.796260050000000053e-01,-2.044839999999999769e+00,1.175019999999999953e+00,-3.433499999999999996e+00
8.896461599999999637e-01,4.607532149999999938e-01,1.796260050000000053e-01,-2.044839999999999769e+00,1.175019999999999953e+00,-3.433499999999999996e+00
8.896461599999999637e-01,4.607532149999999938e-01,1.796260050000000053e-01,-2.044839999999999769e+00,1.175019999999999953e+00,-3.433499999999999996e+00
8.896461599999999637e-01,4.607532149999999938e-01,1.796260050000000053e-01,-2.044839999999999769e+00,1.175019999999999953e+00,-3.433499999999999996e+00
8.896461599999999637e-01,4.607532149999999938e-01,1.796260050000000053e-01,-2.044839999999999769e+00,1.175019999999999953e+00,-3.433499999999999996e+00
8.896461599999999637e-01,4.607532149999999938e-01,1.796260050000000053e-01,-2.044839999999999769e+00,1.175019999999999953e+00,-3.433499999999999996e+00
8.900123699999999971e-01,4.613025299999999884e-01,1.777949550000000045e-01,-9.308599999999999097e-01,5.188399999999999679e-01,-1.938019999999999854e+00
8.900123699999999971e-01,4.613025299999999884e-01,1.777949550000000045e-01,-9.308599999999999097e-01,5.188399999999999679e-01,-1.938019999999999854e+00
8.900123699999999971e-01,4.613025299999999884e-01,1.777949550000000045e-01,-9.308599999999999097e-01,5.188399999999999679e-01,-1.938019999999999854e+00
8.900123699999999971e-01,4.613025299999999884e-01,1.777949550000000045e-01,-9.308599999999999097e-01,5.188399999999999679e-01,-1.938019999999999854e+00
8.900123699999999971e-01,4.613025299999999884e-01,1.777949550000000045e-01,-9.308599999999999097e-01,5.188399999999999679e-01,-1.938019999999999854e+00
8.900123699999999971e-01,4.613025299999999884e-01,1.777949550000000045e-01,-9.308599999999999097e-01,5.188399999999999679e-01,-1.938019999999999854e+00
8.900123699999999971e-01,4.613025299999999884e-01,1.777949550000000045e-01,-9.308599999999999097e-01,5.188399999999999679e-01,-1.938019999999999854e+00
8.900123699999999971e-01,4.613025299999999884e-01,1.777949550000000045e-01,-9.308599999999999097e-01,5.188399999999999679e-01,-1.938019999999999854e+00
8.900123699999999971e-01,4.613025299999999884e-01,1.777949550000000045e-01,-9.308599999999999097e-01,5.188399999999999679e-01,-1.938019999999999854e+00
8.900123699999999971e-01,4.613025299999999884e-01,1.777949550000000045e-01,-9.308599999999999097e-01,5.188399999999999679e-01,-1.938019999999999854e+00
8.904396150000000176e-01,4.587390600000000318e-01,1.777949550000000045e-01,-4.272799999999999931e-01,4.120199999999999974e-01,-1.175019999999999953e+00
8.904396150000000176e-01,4.587390600000000318e-01,1.777949550000000045e-01,-4.272799999999999931e-01,4.120199999999999974e-01,-1.175019999999999953e+00
8.904396150000000176e-01,4.587390600000000318e-01,1.777949550000000045e-01,-4.272799999999999931e-01,4.120199999999999974e-01,-1.175019999999999953e+00
8.904396150000000176e-01,4.587390600000000318e-01,1.777949550000000045e-01,-4.272799999999999931e-01,4.120199999999999974e-01,-1.175019999999999953e+00
8.904396150000000176e-01,4.587390600000000318e-01,1.777949550000000045e-01,-4.272799999999999931e-01,4.120199999999999974e-01,-1.175019999999999953e+00
8.904396150000000176e-01,4.587390600000000318e-01,1.777949550000000045e-01,-4.272799999999999931e-01,4.120199999999999974e-01,-1.175019999999999953e+00
8.904396150000000176e-01,4.587390600000000318e-01,1.777949550000000045e-01,-4.272799999999999931e-01,4.120199999999999974e-01,-1.175019999999999953e+00
8.904396150000000176e-01,4.587390600000000318e-01,1.777949550000000045e-01,-4.272799999999999931e-01,4.120199999999999974e-01,-1.175019999999999953e+00
8.904396150000000176e-01,4.587390600000000318e-01,1.777949550000000045e-01,-4.272799999999999931e-01,4.120199999999999974e-01,-1.175019999999999953e+00
8.904396150000000176e-01,4.587390600000000318e-01,1.777949550000000045e-01,-4.272799999999999931e-01,4.120199999999999974e-01,-1.175019999999999953e+00
8.898903000000000230e-01,4.572742200000000090e-01,1.776728850000000026e-01,-9.156000000000000250e-02,1.068200000000000038e+00,-9.919000000000000039e-01
8.898903000000000230e-01,4.572742200000000090e-01,1.776728850000000026e-01,-9.156000000000000250e-02,1.068200000000000038e+00,-9.919000000000000039e-01
8.898903000000000230e-01,4.572742200000000090e-01,1.776728850000000026e-01,-9.156000000000000250e-02,1.068200000000000038e+00,-9.919000000000000039e-01
8.898903000000000230e-01,4.572742200000000090e-01,1.776728850000000026e-01,-9.156000000000000250e-02,1.068200000000000038e+00,-9.919000000000000039e-01
8.898903000000000230e-01,4.572742200000000090e-01,1.776728850000000026e-01,-9.156000000000000250e-02,1.068200000000000038e+00,-9.919000000000000039e-01
8.898903000000000230e-01,4.572742200000000090e-01,1.776728850000000026e-01,-9.156000000000000250e-02,1.068200000000000038e+00,-9.919000000000000039e-01
8.898903000000000230e-01,4.572742200000000090e-01,1.776728850000000026e-01,-9.156000000000000250e-02,1.068200000000000038e+00,-9.919000000000000039e-01
8.898903000000000230e-01,4.572742200000000090e-01,1.776728850000000026e-01,-9.156000000000000250e-02,1.068200000000000038e+00,-9.919000000000000039e-01
8.898903000000000230e-01,4.572742200000000090e-01,1.776728850000000026e-01,-9.156000000000000250e-02,1.068200000000000038e+00,-9.919000000000000039e-01
8.898903000000000230e-01,4.572742200000000090e-01,1.776728850000000026e-01,-9.156000000000000250e-02,1.068200000000000038e+00,-9.919000000000000039e-01
8.901344399999999712e-01,4.593494100000000135e-01,1.779780599999999935e-01,8.087799999999999434e-01,4.425399999999999889e-01,6.866999999999999771e-01
8.901344399999999712e-01,4.593494100000000135e-01,1.779780599999999935e-01,8.087799999999999434e-01,4.425399999999999889e-01,6.866999999999999771e-01
8.901344399999999712e-01,4.593494100000000135e-01,1.779780599999999935e-01,8.087799999999999434e-01,4.425399999999999889e-01,6.866999999999999771e-01
8.901344399999999712e-01,4.593494100000000135e-01,1.779780599999999935e-01,8.087799999999999434e-01,4.425399999999999889e-01,6.866999999999999771e-01
8.901344399999999712e-01,4.593494100000000135e-01,1.779780599999999935e-01,8.087799999999999434e-01,4.425399999999999889e-01,6.866999999999999771e-01
8.901344399999999712e-01,4.593494100000000135e-01,1.779780599999999935e-01,8.087799999999999434e-01,4.425399999999999889e-01,6.866999999999999771e-01
8.901344399999999712e-01,4.593494100000000135e-01,1.779780599999999935e-01,8.087799999999999434e-01,4.425399999999999889e-01,6.866999999999999771e-01
8.901344399999999712e-01,4.593494100000000135e-01,1.779780599999999935e-01,8.087799999999999434e-01,4.425399999999999889e-01,6.866999999999999771e-01
8.901344399999999712e-01,4.593494100000000135e-01,1.779780599999999935e-01,8.087799999999999434e-01,4.425399999999999889e-01,6.866999999999999771e-01
8.901344399999999712e-01,4.593494100000000135e-01,1.779780599999999935e-01,8.087799999999999434e-01,4.425399999999999889e-01,6.866999999999999771e-01
8.891578800000000671e-01,4.632556500000000188e-01,1.765132199999999985e-01,1.144499999999999851e+00,-3.509799999999999587e-01,2.014320000000000110e+00
8.891578800000000671e-01,4.632556500000000188e-01,1.765132199999999985e-01,1.144499999999999851e+00,-3.509799999999999587e-01,2.014320000000000110e+00
8.891578800000000671e-01,4.632556500000000188e-01,1.765132199999999985e-01,1.144499999999999851e+00,-3.509799999999999587e-01,2.014320000000000110e+00
8.891578800000000671e-01,4.632556500000000188e-01,1.765132199999999985e-01,1.144499999999999851e+00,-3.509799999999999587e-01,2.014320000000000110e+00
8.891578800000000671e-01,4.632556500000000188e-01,1.765132199999999985e-01,1.144499999999999851e+00,-3.509799999999999587e-01,2.014320000000000110e+00
8.891578800000000671e-01,4.632556500000000188e-01,1.765132199999999985e-01,1.144499999999999851e+00,-3.509799999999999587e-01,2.014320000000000110e+00
8.891578800000000671e-01,4.632556500000000188e-01,1.765132199999999985e-01,1.144499999999999851e+00,-3.509799999999999587e-01,2.014320000000000110e+00
8.891578800000000671e-01,4.632556500000000188e-01,1.765132199999999985e-01,1.144499999999999851e+00,-3.509799999999999587e-01,2.014320000000000110e+00
8.891578800000000671e-01,4.632556500000000188e-01,1.765132199999999985e-01,1.144499999999999851e+00,-3.509799999999999587e-01,2.014320000000000110e+00
8.891578800000000671e-01,4.632556500000000188e-01,1.765132199999999985e-01,1.144499999999999851e+00,-3.509799999999999587e-01,2.014320000000000110e+00
8.914161750000000328e-01,4.617297750000000089e-01,1.723628399999999894e-01,1.220799999999999941e-01,-1.068200000000000038e+00,3.189340000000000064e+00
8.914161750000000328e-01,4.617297750000000089e-01,1.723628399999999894e-01,1.220799999999999941e-01,-1.068200000000000038e+00,3.189340000000000064e+00
8.914161750000000328e-01,4.617297750000000089e-01,1.723628399999999894e-01,1.220799999999999941e-01,-1.068200000000000038e+00,3.189340000000000064e+00
8.914161750000000328e-01,4.617297750000000089e-01,1.723628399999999894e-01,1.220799999999999941e-01,-1.068200000000000038e+00,3.189340000000000064e+00
8.914161750000000328e-01,4.617297750000000089e-01,1.723628399999999894e-01,1.220799999999999941e-01,-1.068200000000000038e+00,3.189340000000000064e+00
8.914161750000000328e-01,4.617297750000000089e-01,1.723628399999999894e-01,1.220799999999999941e-01,-1.068200000000000038e+00,3.189340000000000064e+00
8.914161750000000328e-01,4.617297750000000089e-01,1.723628399999999894e-01,1.220799999999999941e-01,-1.068200000000000038e+00,3.189340000000000064e+00
8.914161750000000328e-01,4.617297750000000089e-01,1.723628399999999894e-01,1.220799999999999941e-01,-1.068200000000000038e+00,3.189340000000000064e+00
8.914161750000000328e-01,4.617297750000000089e-01,1.723628399999999894e-01,1.220799999999999941e-01,-1.068200000000000038e+00,3.189340000000000064e+00
8.914161750000000328e-01,4.617297750000000089e-01,1.723628399999999894e-01,1.220799999999999941e-01,-1.068200000000000038e+00,3.189340000000000064e+00
8.938575749999999598e-01,4.553821350000000212e-01,1.680293549999999914e-01,6.409199999999999342e-01,1.739639999999999853e+00,2.105879999999999974e+00
8.938575749999999598e-01,4.553821350000000212e-01,1.680293549999999914e-01,6.409199999999999342e-01,1.739639999999999853e+00,2.105879999999999974e+00
8.938575749999999598e-01,4.553821350000000212e-01,1.680293549999999914e-01,6.409199999999999342e-01,1.739639999999999853e+00,2.105879999999999974e+00
8.938575749999999598e-01,4.553821350000000212e-01,1.680293549999999914e-01,6.409199999999999342e-01,1.739639999999999853e+00,2.105879999999999974e+00
8.938575749999999598e-01,4.553821350000000212e-01,1.680293549999999914e-01,6.409199999999999342e-01,1.739639999999999853e+00,2.105879999999999974e+00
8.938575749999999598e-01,4.553821350000000212e-01,1.680293549999999914e-01,6.409199999999999342e-01,1.739639999999999853e+00,2.105879999999999974e+00
8.938575749999999598e-01,4.553821350000000212e-01,1.680293549999999914e-01,6.409199999999999342e-01,1.739639999999999853e+00,2.105879999999999974e+00
8.938575749999999598e-01,4.553821350000000212e-01,1.680293549999999914e-01,6.409199999999999342e-01,1.739639999999999853e+00,2.105879999999999974e+00
8.938575749999999598e-01,4.553821350000000212e-01,1.680293549999999914e-01,6.409199999999999342e-01,1.739639999999999853e+00,2.105879999999999974e+00
8.938575749999999598e-01,4.553821350000000212e-01,1.680293549999999914e-01,6.409199999999999342e-01,1.739639999999999853e+00,2.105879999999999974e+00
8.947120650000000008e-01,4.514758950000000159e-01,1.693110899999999974e-01,1.068200000000000038e+00,3.296159999999999979e+00,-1.068200000000000038e+00
8.947120650000000008e-01,4.514758950000000159e-01,1.693110899999999974e-01,1.068200000000000038e+00,3.296159999999999979e+00,-1.068200000000000038e+00
8.947120650000000008e-01,4.514758950000000159e-01,1.693110899999999974e-01,1.068200000000000038e+00,3.296159999999999979e+00,-1.068200000000000038e+00
8.947120650000000008e-01,4.514758950000000159e-01,1.693110899999999974e-01,1.068200000000000038e+00,3.296159999999999979e+00,-1.068200000000000038e+00
8.947120650000000008e-01,4.514758950000000159e-01,1.693110899999999974e-01,1.068200000000000038e+00,3.296159999999999979e+00,-1.068200000000000038e+00
8.947120650000000008e-01,4.514758950000000159e-01,1.693110899999999974e-01,1.068200000000000038e+00,3.296159999999999979e+00,-1.068200000000000038e+00
8.947120650000000008e-01,4.514758950000000159e-01,1.693110899999999974e-01,1.068200000000000038e+00,3.296159999999999979e+00,-1.068200000000000038e+00
8.947120650000000008e-01,4.514758950000000159e-01,1.693110899999999974e-01,1.068200000000000038e+00,3.296159999999999979e+00,-1.068200000000000038e+00
8.947120650000000008e-01,4.514758950000000159e-01,1.693110899999999974e-01,1.068200000000000038e+00,3.296159999999999979e+00,-1.068200000000000038e+00
8.947120650000000008e-01,4.514758950000000159e-01,1.693110899999999974e-01,1.068200000000000038e+00,3.296159999999999979e+00,-1.068200000000000038e+00
8.927589449999999704e-01,4.549548900000000007e-01,1.727290499999999951e-01,4.272799999999999931e-01,4.074419999999999931e+00,-1.831199999999999939e+00
8.927589449999999704e-01,4.549548900000000007e-01,1.727290499999999951e-01,4.272799999999999931e-01,4.074419999999999931e+00,-1.831199999999999939e+00
8.927589449999999704e-01,4.549548900000000007e-01,1.727290499999999951e-01,4.272799999999999931e-01,4.074419999999999931e+00,-1.831199999999999939e+00
8.927589449999999704e-01,4.549548900000000007e-01,1.727290499999999951e-01,4.272799999999999931e-01,4.074419999999999931e+00,-1.831199999999999939e+00
8.927589449999999704e-01,4.549548900000000007e-01,1.727290499999999951e-01,4.272799999999999931e-01,4.074419999999999931e+00,-1.831199999999999939e+00
8.927589449999999704e-01,4.549548900000000007e-01,1.727290499999999951e-01,4.272799999999999931e-01,4.074419999999999931e+00,-1.831199999999999939e+00
8.927589449999999704e-01,4.549548900000000007e-01,1.727290499999999951e-01,4.272799999999999931e-01,4.074419999999999931e+00,-1.831199999999999939e+00
8.927589449999999704e-01,4.549548900000000007e-01,1.727290499999999951e-01,4.272799999999999931e-01,4.074419999999999931e+00,-1.831199999999999939e+00
8.927589449999999704e-01,4.549548900000000007e-01,1.727290499999999951e-01,4.272799999999999931e-01,4.074419999999999931e+00,-1.831199999999999939e+00
8.927589449999999704e-01,4.549548900000000007e-01,1.727290499999999951e-01,4.272799999999999931e-01,4.074419999999999931e+00,-1.831199999999999939e+00
8.893409850000000283e-01,4.623401249999999907e-01,1.778559899999999916e-01,4.272799999999999931e-01,2.151659999999999684e+00,-1.617559999999999887e+00
8.893409850000000283e-01,4.623401249999999907e-01,1.778559899999999916e-01,4.272799999999999931e-01,2.151659999999999684e+00,-1.617559999999999887e+00
8.893409850000000283e-01,4.623401249999999907e-01,1.778559899999999916e-01,4.272799999999999931e-01,2.151659999999999684e+00,-1.617559999999999887e+00
8.893409850000000283e-01,4.623401249999999907e-01,1.778559899999999916e-01,4.272799999999999931e-01,2.151659999999999684e+00,-1.617559999999999887e+00
8.893409850000000283e-01,4.623401249999999907e-01,1.778559899999999916e-01,4.272799999999999931e-01,2.151659999999999684e+00,-1.617559999999999887e+00
8.893409850000000283e-01,4.623401249999999907e-01,1.778559899999999916e-01,4.272799999999999931e-01,2.151659999999999684e+00,-1.617559999999999887e+00
8.893409850000000283e-01,4.623401249999999907e-01,1.778559899999999916e-01,4.272799999999999931e-01,2.151659999999999684e+00,-1.617559999999999887e+00
8.893409850000000283e-01,4.623401249999999907e-01,1.778559899999999916e-01,4.272799999999999931e-01,2.151659999999999684e+00,-1.617559999999999887e+00
8.893409850000000283e-01,4.623401249999999907e-01,1.778559899999999916e-01,4.272799999999999931e-01,2.151659999999999684e+00,-1.617559999999999887e+00
8.893409850000000283e-01,4.623401249999999907e-01,1.778559899999999916e-01,4.272799999999999931e-01,2.151659999999999684e+00,-1.617559999999999887e+00
8.873268300000000108e-01,4.664905049999999997e-01,1.802363550000000147e-01,5.035800000000000276e-01,1.022419999999999884e+00,-3.051999999999999852e-02
8.873268300000000108e-01,4.664905049999999997e-01,1.802363550000000147e-01,5.035800000000000276e-01,1.022419999999999884e+00,-3.051999999999999852e-02
8.873268300000000108e-01,4.664905049999999997e-01,1.802363550000000147e-01,5.035800000000000276e-01,1.022419999999999884e+00,-3.051999999999999852e-02
8.873268300000000108e-01,4.664905049999999997e-01,1.802363550000000147e-01,5.035800000000000276e-01,1.022419999999999884e+00,-3.051999999999999852e-02
8.873268300000000108e-01,4.664905049999999997e-01,1.802363550000000147e-01,5.035800000000000276e-01,1.022419999999999884e+00,-3.051999999999999852e-02
8.873268300000000108e-01,4.664905049999999997e-01,1.802363550000000147e-01,5.035800000000000276e-01,1.022419999999999884e+00,-3.051999999999999852e-02
8.873268300000000108e-01,4.664905049999999997e-01,1.802363550000000147e-01,5.035800000000000276e-01,1.022419999999999884e+00,-3.051999999999999852e-02
8.873268300000000108e-01,4.664905049999999997e-01,1.802363550000000147e-01,5.035800000000000276e-01,1.022419999999999884e+00,-3.051999999999999852e-02
8.873268300000000108e-01,4.664905049999999997e-01,1.802363550000000147e-01,5.035800000000000276e-01,1.022419999999999884e+00,-3.051999999999999852e-02
8.873268300000000108e-01,4.664905049999999997e-01,1.802363550000000147e-01,5.035800000000000276e-01,1.022419999999999884e+00,-3.051999999999999852e-02
8.873878649999999979e-01,4.649646299999999899e-01,1.786494449999999901e-01,-5.798799999999999510e-01,-3.051999999999999713e-01,1.403919999999999835e+00
8.873878649999999979e-01,4.649646299999999899e-01,1.786494449999999901e-01,-5.798799999999999510e-01,-3.051999999999999713e-01,1.403919999999999835e+00
8.873878649999999979e-01,4.649646299999999899e-01,1.786494449999999901e-01,-5.798799999999999510e-01,-3.051999999999999713e-01,1.403919999999999835e+00
8.873878649999999979e-01,4.649646299999999899e-01,1.786494449999999901e-01,-5.798799999999999510e-01,-3.051999999999999713e-01,1.403919999999999835e+00
8.873878649999999979e-01,4.649646299999999899e-01,1.786494449999999901e-01,-5.798799999999999510e-01,-3.051999999999999713e-01,1.403919999999999835e+00
8.873878649999999979e-01,4.649646299999999899e-01,1.786494449999999901e-01,-5.798799999999999510e-01,-3.051999999999999713e-01,1.403919999999999835e+00
8.873878649999999979e-01,4.649646299999999899e-01,1.786494449999999901e-01,-5.798799999999999510e-01,-3.051999999999999713e-01,1.403919999999999835e+00
8.873878649999999979e-01,4.649646299999999899e-01,1.786494449999999901e-01,-5.798799999999999510e-01,-3.051999999999999713e-01,1.403919999999999835e+00
8.873878649999999979e-01,4.649646299999999899e-01,1.786494449999999901e-01,-5.798799999999999510e-01,-3.051999999999999713e-01,1.403919999999999835e+00
8.873878649999999979e-01,4.649646299999999899e-01,1.786494449999999901e-01,-5.798799999999999510e-01,-3.051999999999999713e-01,1.403919999999999835e+00
8.891578800000000671e-01,4.610583899999999846e-01,1.759639050000000038e-01,-4.578000000000000125e-02,-5.188399999999999679e-01,1.785420000000000007e+00
8.891578800000000671e-01,4.610583899999999846e-01,1.759639050000000038e-01,-4.578000000000000125e-02,-5.188399999999999679e-01,1.785420000000000007e+00
8.891578800000000671e-01,4.610583899999999846e-01,1.759639050000000038e-01,-4.578000000000000125e-02,-5.188399999999999679e-01,1.785420000000000007e+00
8.891578800000000671e-01,4.610583899999999846e-01,1.759639050000000038e-01,-4.578000000000000125e-02,-5.188399999999999679e-01,1.785420000000000007e+00
8.891578800000000671e-01,4.610583899999999846e-01,1.759639050000000038e-01,-4.578000000000000125e-02,-5.188399999999999679e-01,1.785420000000000007e+00
8.891578800000000671e-01,4.610583899999999846e-01,1.759639050000000038e-01,-4.578000000000000125e-02,-5.188399999999999679e-01,1.785420000000000007e+00
8.891578800000000671e-01,4.610583899999999846e-01,1.759639050000000038e-01,-4.578000000000000125e-02,-5.188399999999999679e-01,1.785420000000000007e+00
8.891578800000000671e-01,4.610583899999999846e-01,1.759639050000000038e-01,-4.578000000000000125e-02,-5.188399999999999679e-01,1.785420000000000007e+00
8.891578800000000671e-01,4.610583899999999846e-01,1.759639050000000038e-01,-4.578000000000000125e-02,-5.188399999999999679e-01,1.785420000000000007e+00
8.891578800000000671e-01,4.610583899999999846e-01,1.759639050000000038e-01,-4.578000000000000125e-02,-5.188399999999999679e-01,1.785420000000000007e+00
8.920875600000000016e-01,4.586169900000000021e-01,1.766963250000000152e-01,5.188399999999999679e-01,8.087799999999999434e-01,2.838359999999999772e+00
8.920875600000000016e-01,4.586169900000000021e-01,1.766963250000000152e-01,5.188399999999999679e-01,8.087799999999999434e-01,2.838359999999999772e+00
8.920875600000000016e-01,4.586169900000000021e-01,1.766963250000000152e-01,5.188399999999999679e-01,8.087799999999999434e-01,2.838359999999999772e+00
8.920875600000000016e-01,4.586169900000000021e-01,1.766963250000000152e-01,5.188399999999999679e-01,8.087799999999999434e-01,2.838359999999999772e+00
8.920875600000000016e-01,4.586169900000000021e-01,1.766963250000000152e-01,5.188399999999999679e-01,8.087799999999999434e-01,2.838359999999999772e+00
8.920875600000000016e-01,4.586169900000000021e-01,1.766963250000000152e-01,5.188399999999999679e-01,8.087799999999999434e-01,2.838359999999999772e+00
8.920875600000000016e-01,4.586169900000000021e-01,1.766963250000000152e-01,5.188399999999999679e-01,8.087799999999999434e-01,2.838359999999999772e+00
8.920875600000000016e-01,4.586169900000000021e-01,1.766963250000000152e-01,5.188399999999999679e-01,8.087799999999999434e-01,2.838359999999999772e+00
8.920875600000000016e-01,4.586169900000000021e-01,1.766963250000000152e-01,5.188399999999999679e-01,8.087799999999999434e-01,2.838359999999999772e+00
8.920875600000000016e-01,4.586169900000000021e-01,1.766963250000000152e-01,5.188399999999999679e-01,8.087799999999999434e-01,2.838359999999999772e+00
8.905006500000000047e-01,4.591052700000000097e-01,1.779780599999999935e-01,1.022419999999999884e+00,-1.144499999999999851e+00,3.036739999999999995e+00
8.905006500000000047e-01,4.591052700000000097e-01,1.779780599999999935e-01,1.022419999999999884e+00,-1.144499999999999851e+00,3.036739999999999995e+00
8.905006500000000047e-01,4.591052700000000097e-01,1.779780599999999935e-01,1.022419999999999884e+00,-1.144499999999999851e+00,3.036739999999999995e+00
8.905006500000000047e-01,4.591052700000000097e-01,1.779780599999999935e-01,1.022419999999999884e+00,-1.144499999999999851e+00,3.036739999999999995e+00
8.905006500000000047e-01,4.591052700000000097e-01,1.779780599999999935e-01,1.022419999999999884e+00,-1.144499999999999851e+00,3.036739999999999995e+00
8.905006500000000047e-01,4.591052700000000097e-01,1.779780599999999935e-01,1.022419999999999884e+00,-1.144499999999999851e+00,3.036739999999999995e+00
8.905006500000000047e-01,4.591052700000000097e-01,1.779780599999999935e-01,1.022419999999999884e+00,-1.144499999999999851e+00,3.036739999999999995e+00
8.905006500000000047e-01,4.591052700000000097e-01,1.779780599999999935e-01,1.022419999999999884e+00,-1.144499999999999851e+00,3.036739999999999995e+00
8.905006500000000047e-01,4.591052700000000097e-01,1.779780599999999935e-01,1.022419999999999884e+00,-1.144499999999999851e+00,3.036739999999999995e+00
8.905006500000000047e-01,4.591052700000000097e-01,1.779780599999999935e-01,1.022419999999999884e+00,-1.144499999999999851e+00,3.036739999999999995e+00
8.908668600000000382e-01,4.613025299999999884e-01,1.740107850000000012e-01,-8.087799999999999434e-01,-1.236059999999999937e+00,4.745859999999999523e+00
8.908668600000000382e-01,4.613025299999999884e-01,1.740107850000000012e-01,-8.087799999999999434e-01,-1.236059999999999937e+00,4.745859999999999523e+00
8.908668600000000382e-01,4.613025299999999884e-01,1.740107850000000012e-01,-8.087799999999999434e-01,-1.236059999999999937e+00,4.745859999999999523e+00
8.908668600000000382e-01,4.613025299999999884e-01,1.740107850000000012e-01,-8.087799999999999434e-01,-1.236059999999999937e+00,4.745859999999999523e+00
8.908668600000000382e-01,4.613025299999999884e-01,1.740107850000000012e-01,-8.087799999999999434e-01,-1.236059999999999937e+00,4.745859999999999523e+00
8.908668600000000382e-01,4.613025299999999884e-01,1.740107850000000012e-01,-8.087799999999999434e-01,-1.236059999999999937e+00,4.745859999999999523e+00
8.908668600000000382e-01,4.613025299999999884e-01,1.740107850000000012e-01,-8.087799999999999434e-01,-1.236059999999999937e+00,4.745859999999999523e+00
8.908668600000000382e-01,4.613025299999999884e-01,1.740107850000000012e-01,-8.087799999999999434e-01,-1.236059999999999937e+00,4.745859999999999523e+00
8.908668600000000382e-01,4.613025299999999884e-01,1.740107850000000012e-01,-8.087799999999999434e-01,-1.236059999999999937e+00,4.745859999999999523e+00
8.908668600000000382e-01,4.613025299999999884e-01,1.740107850000000012e-01,-8.087799999999999434e-01,-1.236059999999999937e+00,4.745859999999999523e+00
8.938575749999999598e-01,4.573352549999999961e-01,1.687007400000000157e-01,-6.256599999999999939e-01,-1.663339999999999819e+00,4.516960000000000086e+00
8.938575749999999598e-01,4.573352549999999961e-01,1.687007400000000157e-01,-6.256599999999999939e-01,-1.663339999999999819e+00,4.516960000000000086e+00
8.938575749999999598e-01,4.573352549999999961e-01,1.687007400000000157e-01,-6.256599999999999939e-01,-1.663339999999999819e+00,4.516960000000000086e+00
8.938575749999999598e-01,4.573352549999999961e-01,1.687007400000000157e-01,-6.256599999999999939e-01,-1.663339999999999819e+00,4.516960000000000086e+00
8.938575749999999598e-01,4.573352549999999961e-01,1.687007400000000157e-01,-6.256599999999999939e-01,-1.663339999999999819e+00,4.516960000000000086e+00
8.938575749999999598e-01,4.573352549999999961e-01,1.687007400000000157e-01,-6.256599999999999939e-01,-1.663339999999999819e+00,4.516960000000000086e+00
8.938575749999999598e-01,4.573352549999999961e-01,1.687007400000000157e-01,-6.256599999999999939e-01,-1.663339999999999819e+00,4.516960000000000086e+00
8.938575749999999598e-01,4.573352549999999961e-01,1.687007400000000157e-01,-6.256599999999999939e-01,-1.663339999999999819e+00,4.516960000000000086e+00
8.938575749999999598e-01,4.573352549999999961e-01,1.687007400000000157e-01,-6.256599999999999939e-01,-1.663339999999999819e+00,4.516960000000000086e+00
8.938575749999999598e-01,4.573352549999999961e-01,1.687007400000000157e-01,-6.256599999999999939e-01,-1.663339999999999819e+00,4.516960000000000086e+00
8.951393100000000214e-01,4.506824400000000175e-01,1.654048499999999922e-01,-6.256599999999999939e-01,1.052939999999999987e+00,2.227959999999999940e+00
8.951393100000000214e-01,4.506824400000000175e-01,1.654048499999999922e-01,-6.256599999999999939e-01,1.052939999999999987e+00,2.227959999999999940e+00
8.951393100000000214e-01,4.506824400000000175e-01,1.654048499999999922e-01,-6.256599999999999939e-01,1.052939999999999987e+00,2.227959999999999940e+00
8.951393100000000214e-01,4.506824400000000175e-01,1.654048499999999922e-01,-6.256599999999999939e-01,1.052939999999999987e+00,2.227959999999999940e+00
8.951393100000000214e-01,4.506824400000000175e-01,1.654048499999999922e-01,-6.256599999999999939e-01,1.052939999999999987e+00,2.227959999999999940e+00
8.951393100000000214e-01,4.506824400000000175e-01,1.654048499999999922e-01,-6.256599999999999939e-01,1.052939999999999987e+00,2.227959999999999940e+00
8.951393100000000214e-01,4.506824400000000175e-01,1.654048499999999922e-01,-6.256599999999999939e-01,1.052939999999999987e+00,2.227959999999999940e+00
8.951393100000000214e-01,4.506824400000000175e-01,1.654048499999999922e-01,-6.256599999999999939e-01,1.052939999999999987e+00,2.227959999999999940e+00
8.951393100000000214e-01,4.506824400000000175e-01,1.654048499999999922e-01,-6.256599999999999939e-01,1.052939999999999987e+00,2.227959999999999940e+00
8.951393100000000214e-01,4.506824400000000175e-01,1.654048499999999922e-01,-6.256599999999999939e-01,1.052939999999999987e+00,2.227959999999999940e+00
8.969093249999999795e-01,4.469593050000000289e-01,1.673579699999999948e-01,-1.724380000000000024e+00,2.441599999999999770e+00,-1.327620000000000022e+00
8.969093249999999795e-01,4.469593050000000289e-01,1.673579699999999948e-01,-1.724380000000000024e+00,2.441599999999999770e+00,-1.327620000000000022e+00
8.969093249999999795e-01,4.469593050000000289e-01,1.673579699999999948e-01,-1.724380000000000024e+00,2.441599999999999770e+00,-1.327620000000000022e+00
8.969093249999999795e-01,4.469593050000000289e-01,1.673579699999999948e-01,-1.724380000000000024e+00,2.441599999999999770e+00,-1.327620000000000022e+00
8.969093249999999795e-01,4.469593050000000289e-01,1.673579699999999948e-01,-1.724380000000000024e+00,2.441599999999999770e+00,-1.327620000000000022e+00
8.969093249999999795e-01,4.469593050000000289e-01,1.673579699999999948e-01,-1.724380000000000024e+00,2.441599999999999770e+00,-1.327620000000000022e+00
8.969093249999999795e-01,4.469593050000000289e-01,1.673579699999999948e-01,-1.724380000000000024e+00,2.441599999999999770e+00,-1.327620000000000022e+00
8.969093249999999795e-01,4.469593050000000289e-01,1.673579699999999948e-01,-1.724380000000000024e+00,2.441599999999999770e+00,-1.327620000000000022e+00
8.969093249999999795e-01,4.469593050000000289e-01,1.673579699999999948e-01,-1.724380000000000024e+00,2.441599999999999770e+00,-1.327620000000000022e+00
8.969093249999999795e-01,4.469593050000000289e-01,1.673579699999999948e-01,-1.724380000000000024e+00,2.441599999999999770e+00,-1.327620000000000022e+00
8.923927350000000480e-01,4.511096849999999825e-01,1.724849099999999913e-01,-1.983800000000000008e+00,2.319519999999999804e+00,-2.807839999999999669e+00
8.923927350000000480e-01,4.511096849999999825e-01,1.724849099999999913e-01,-1.983800000000000008e+00,2.319519999999999804e+00,-2.807839999999999669e+00
8.923927350000000480e-01,4.511096849999999825e-01,1.724849099999999913e-01,-1.983800000000000008e+00,2.319519999999999804e+00,-2.807839999999999669e+00
8.923927350000000480e-01,4.511096849999999825e-01,1.724849099999999913e-01,-1.983800000000000008e+00,2.319519999999999804e+00,-2.807839999999999669e+00
8.923927350000000480e-01,4.511096849999999825e-01,1.724849099999999913e-01,-1.983800000000000008e+00,2.319519999999999804e+00,-2.807839999999999669e+00
8.923927350000000480e-01,4.511096849999999825e-01,1.724849099999999913e-01,-1.983800000000000008e+00,2.319519999999999804e+00,-2.807839999999999669e+00
8.923927350000000480e-01,4.511096849999999825e-01,1.724849099999999913e-01,-1.983800000000000008e+00,2.319519999999999804e+00,-2.807839999999999669e+00
8.923927350000000480e-01,4.511096849999999825e-01,1.724849099999999913e-01,-1.983800000000000008e+00,2.319519999999999804e+00,-2.807839999999999669e+00
8.923927350000000480e-01,4.511096849999999825e-01,1.724849099999999913e-01,-1.983800000000000008e+00,2.319519999999999804e+00,-2.807839999999999669e+00
8.923927350000000480e-01,4.511096849999999825e-01,1.724849099999999913e-01,-1.983800000000000008e+00,2.319519999999999804e+00,-2.807839999999999669e+00
8.908058250000000511e-01,4.576404299999999870e-01,1.766963250000000152e-01,-6.409199999999999342e-01,7.629999999999999283e-02,-2.426339999999999719e+00
8.908058250000000511e-01,4.576404299999999870e-01,1.766963250000000152e-01,-6.409199999999999342e-01,7.629999999999999283e-02,-2.426339999999999719e+00
8.908058250000000511e-01,4.576404299999999870e-01,1.766963250000000152e-01,-6.409199999999999342e-01,7.629999999999999283e-02,-2.426339999999999719e+00
8.908058250000000511e-01,4.576404299999999870e-01,1.766963250000000152e-01,-6.409199999999999342e-01,7.629999999999999283e-02,-2.426339999999999719e+00
8.908058250000000511e-01,4.576404299999999870e-01,1.766963250000000152e-01,-6.409199999999999342e-01,7.629999999999999283e-02,-2.426339999999999719e+00
8.908058250000000511e-01,4.576404299999999870e-01,1.766963250000000152e-01,-6.409199999999999342e-01,7.629999999999999283e-02,-2.426339999999999719e+00
8.908058250000000511e-01,4.576404299999999870e-01,1.766963250000000152e-01,-6.409199999999999342e-01,7.629999999999999283e-02,-2.426339999999999719e+00
8.908058250000000511e-01,4.576404299999999870e-01,1.766963250000000152e-01,-6.409199999999999342e-01,7.629999999999999283e-02,-2.426339999999999719e+00
8.908058250000000511e-01,4.576404299999999870e-01,1.766963250000000152e-01,-6.409199999999999342e-01,7.629999999999999283e-02,-2.426339999999999719e+00
8.908058250000000511e-01,4.576404299999999870e-01,1.766963250000000152e-01,-6.409199999999999342e-01,7.629999999999999283e-02,-2.426339999999999719e+00
8.915382450000000070e-01,4.606921800000000067e-01,1.777339199999999897e-01,-7.019599999999999174e-01,6.103999999999999704e-02,-7.630000000000000115e-01
8.915382450000000070e-01,4.606921800000000067e-01,1.777339199999999897e-01,-7.019599999999999174e-01,6.103999999999999704e-02,-7.630000000000000115e-01
8.915382450000000070e-01,4.606921800000000067e-01,1.777339199999999897e-01,-7.019599999999999174e-01,6.103999999999999704e-02,-7.630000000000000115e-01
8.915382450000000070e-01,4.606921800000000067e-01,1.777339199999999897e-01,-7.019599999999999174e-01,6.103999999999999704e-02,-7.630000000000000115e-01
8.915382450000000070e-01,4.606921800000000067e-01,1.777339199999999897e-01,-7.019599999999999174e-01,6.103999999999999704e-02,-7.630000000000000115e-01
8.915382450000000070e-01,4.606921800000000067e-01,1.777339199999999897e-01,-7.019599999999999174e-01,6.103999999999999704e-02,-7.630000000000000115e-01
8.915382450000000070e-01,4.606921800000000067e-01,1.777339199999999897e-01,-7.019599999999999174e-01,6.103999999999999704e-02,-7.630000000000000115e-01
8.915382450000000070e-01,4.606921800000000067e-01,1.777339199999999897e-01,-7.019599999999999174e-01,6.103999999999999704e-02,-7.630000000000000115e-01
8.915382450000000070e-01,4.606921800000000067e-01,1.777339199999999897e-01,-7.019599999999999174e-01,6.103999999999999704e-02,-7.630000000000000115e-01
8.915382450000000070e-01,4.606921800000000067e-01,1.777339199999999897e-01,-7.019599999999999174e-01,6.103999999999999704e-02,-7.630000000000000115e-01
8.904396150000000176e-01,4.576404299999999870e-01,1.752314849999999924e-01,-2.319519999999999804e+00,-1.587040000000000006e+00,-1.617559999999999887e+00
8.904396150000000176e-01,4.576404299999999870e-01,1.752314849999999924e-01,-2.319519999999999804e+00,-1.587040000000000006e+00,-1.617559999999999887e+00
8.904396150000000176e-01,4.576404299999999870e-01,1.752314849999999924e-01,-2.319519999999999804e+00,-1.587040000000000006e+00,-1.617559999999999887e+00
8.904396150000000176e-01,4.576404299999999870e-01,1.752314849999999924e-01,-2.319519999999999804e+00,-1.587040000000000006e+00,-1.617559999999999887e+00
8.904396150000000176e-01,4.576404299999999870e-01,1.752314849999999924e-01,-2.319519999999999804e+00,-1.587040000000000006e+00,-1.617559999999999887e+00
8.904396150000000176e-01,4.576404299999999870e-01,1.752314849999999924e-01,-2.319519999999999804e+00,-1.587040000000000006e+00,-1.617559999999999887e+00
8.904396150000000176e-01,4.576404299999999870e-01,1.752314849999999924e-01,-2.319519999999999804e+00,-1.587040000000000006e+00,-1.617559999999999887e+00
8.904396150000000176e-01,4.576404299999999870e-01,1.752314849999999924e-01,-2.319519999999999804e+00,-1.587040000000000006e+00,-1.617559999999999887e+00
8.904396150000000176e-01,4.576404299999999870e-01,1.752314849999999924e-01,-2.319519999999999804e+00,-1.587040000000000006e+00,-1.617559999999999887e+00
8.904396150000000176e-01,4.576404299999999870e-01,1.752314849999999924e-01,-2.319519999999999804e+00,-1.587040000000000006e+00,-1.617559999999999887e+00
8.929420500000000427e-01,4.540393650000000281e-01,1.749263100000000015e-01,-2.288999999999999702e+00,1.220799999999999941e-01,-1.541259999999999852e+00
8.929420500000000427e-01,4.540393650000000281e-01,1.749263100000000015e-01,-2.288999999999999702e+00,1.220799999999999941e-01,-1.541259999999999852e+00
8.929420500000000427e-01,4.540393650000000281e-01,1.749263100000000015e-01,-2.288999999999999702e+00,1.220799999999999941e-01,-1.541259999999999852e+00
8.929420500000000427e-01,4.540393650000000281e-01,1.749263100000000015e-01,-2.288999999999999702e+00,1.220799999999999941e-01,-1.541259999999999852e+00
8.929420500000000427e-01,4.540393650000000281e-01,1.749263100000000015e-01,-2.288999999999999702e+00,1.220799999999999941e-01,-1.541259999999999852e+00
8.929420500000000427e-01,4.540393650000000281e-01,1.749263100000000015e-01,-2.288999999999999702e+00,1.220799999999999941e-01,-1.541259999999999852e+00
8.929420500000000427e-01,4.540393650000000281e-01,1.749263100000000015e-01,-2.288999999999999702e+00,1.220799999999999941e-01,-1.541259999999999852e+00
8.929420500000000427e-01,4.540393650000000281e-01,1.749263100000000015e-01,-2.288999999999999702e+00,1.220799999999999941e-01,-1.541259999999999852e+00
8.929420500000000427e-01,4.540393650000000281e-01,1.749263100000000015e-01,-2.288999999999999702e+00,1.220799999999999941e-01,-1.541259999999999852e+00
8.929420500000000427e-01,4.540393650000000281e-01,1.749263100000000015e-01,-2.288999999999999702e+00,1.220799999999999941e-01,-1.541259999999999852e+00
8.917213499999999682e-01,4.541004000000000151e-01,1.783442699999999992e-01,1.525999999999999857e-01,1.175019999999999953e+00,7.629999999999999283e-02
8.917213499999999682e-01,4.541004000000000151e-01,1.783442699999999992e-01,1.525999999999999857e-01,1.175019999999999953e+00,7.629999999999999283e-02
8.917213499999999682e-01,4.541004000000000151e-01,1.783442699999999992e-01,1.525999999999999857e-01,1.175019999999999953e+00,7.629999999999999283e-02
8.917213499999999682e-01,4.541004000000000151e-01,1.783442699999999992e-01,1.525999999999999857e-01,1.175019999999999953e+00,7.629999999999999283e-02
8.917213499999999682e-01,4.541004000000000151e-01,1.783442699999999992e-01,1.525999999999999857e-01,1.175019999999999953e+00,7.629999999999999283e-02
8.917213499999999682e-01,4.541004000000000151e-01,1.783442699999999992e-01,1.525999999999999857e-01,1.175019999999999953e+00,7.629999999999999283e-02
8.917213499999999682e-01,4.541004000000000151e-01,1.783442699999999992e-01,1.525999999999999857e-01,1.175019999999999953e+00,7.629999999999999283e-02
8.917213499999999682e-01,4.541004000000000151e-01,1.783442699999999992e-01,1.525999999999999857e-01,1.175019999999999953e+00,7.629999999999999283e-02
8.917213499999999682e-01,4.541004000000000151e-01,1.783442699999999992e-01,1.525999999999999857e-01,1.175019999999999953e+00,7.629999999999999283e-02
8.917213499999999682e-01,4.541004000000000151e-01,1.783442699999999992e-01,1.525999999999999857e-01,1.175019999999999953e+00,7.629999999999999283e-02
8.915992799999999940e-01,4.577014650000000295e-01,1.790156549999999958e-01,-3.891299999999999759e+00,-1.831200000000000050e-01,7.935200000000000031e-01
8.915992799999999940e-01,4.577014650000000295e-01,1.790156549999999958e-01,-3.891299999999999759e+00,-1.831200000000000050e-01,7.935200000000000031e-01
8.915992799999999940e-01,4.577014650000000295e-01,1.790156549999999958e-01,-3.891299999999999759e+00,-1.831200000000000050e-01,7.935200000000000031e-01
8.915992799999999940e-01,4.577014650000000295e-01,1.790156549999999958e-01,-3.891299999999999759e+00,-1.831200000000000050e-01,7.935200000000000031e-01
8.915992799999999940e-01,4.577014650000000295e-01,1.790156549999999958e-01,-3.891299999999999759e+00,-1.831200000000000050e-01,7.935200000000000031e-01
8.915992799999999940e-01,4.577014650000000295e-01,1.790156549999999958e-01,-3.891299999999999759e+00,-1.831200000000000050e-01,7.935200000000000031e-01
8.915992799999999940e-01,4.577014650000000295e-01,1.790156549999999958e-01,-3.891299999999999759e+00,-1.831200000000000050e-01,7.935200000000000031e-01
8.915992799999999940e-01,4.577014650000000295e-01,1.790156549999999958e-01,-3.891299999999999759e+00,-1.831200000000000050e-01,7.935200000000000031e-01
8.915992799999999940e-01,4.577014650000000295e-01,1.790156549999999958e-01,-3.891299999999999759e+00,-1.831200000000000050e-01,7.935200000000000031e-01
8.915992799999999940e-01,4.577014650000000295e-01,1.790156549999999958e-01,-3.891299999999999759e+00,-1.831200000000000050e-01,7.935200000000000031e-01
8.911720349999999735e-01,4.611194250000000272e-01,1.734614700000000065e-01,-9.613799999999999013e-01,-9.919000000000000039e-01,1.541259999999999852e+00
8.911720349999999735e-01,4.611194250000000272e-01,1.734614700000000065e-01,-9.613799999999999013e-01,-9.919000000000000039e-01,1.541259999999999852e+00
8.911720349999999735e-01,4.611194250000000272e-01,1.734614700000000065e-01,-9.613799999999999013e-01,-9.919000000000000039e-01,1.541259999999999852e+00
8.911720349999999735e-01,4.611194250000000272e-01,1.734614700000000065e-01,-9.613799999999999013e-01,-9.919000000000000039e-01,1.541259999999999852e+00
8.911720349999999735e-01,4.611194250000000272e-01,1.734614700000000065e-01,-9.613799999999999013e-01,-9.919000000000000039e-01,1.541259999999999852e+00
8.911720349999999735e-01,4.611194250000000272e-01,1.734614700000000065e-01,-9.613799999999999013e-01,-9.919000000000000039e-01,1.541259999999999852e+00
8.911720349999999735e-01,4.611194250000000272e-01,1.734614700000000065e-01,-9.613799999999999013e-01,-9.919000000000000039e-01,1.541259999999999852e+00
8.911720349999999735e-01,4.611194250000000272e-01,1.734614700000000065e-01,-9.613799999999999013e-01,-9.919000000000000039e-01,1.541259999999999852e+00
8.911720349999999735e-01,4.611194250000000272e-01,1.734614700000000065e-01,-9.613799999999999013e-01,-9.919000000000000039e-01,1.541259999999999852e+00
8.911720349999999735e-01,4.611194250000000272e-01,1.734614700000000065e-01,-9.613799999999999013e-01,-9.919000000000000039e-01,1.541259999999999852e+00
8.948951699999999621e-01,4.575793949999999999e-01,1.682734949999999952e-01,-5.951400000000000023e-01,3.967600000000000016e-01,1.983800000000000008e+00
8.948951699999999621e-01,4.575793949999999999e-01,1.682734949999999952e-01,-5.951400000000000023e-01,3.967600000000000016e-01,1.983800000000000008e+00
8.948951699999999621e-01,4.575793949999999999e-01,1.682734949999999952e-01,-5.951400000000000023e-01,3.967600000000000016e-01,1.983800000000000008e+00
8.948951699999999621e-01,4.575793949999999999e-01,1.682734949999999952e-01,-5.951400000000000023e-01,3.967600000000000016e-01,1.983800000000000008e+00
8.948951699999999621e-01,4.575793949999999999e-01,1.682734949999999952e-01,-5.951400000000000023e-01,3.967600000000000016e-01,1.983800000000000008e+00
8.948951699999999621e-01,4.575793949999999999e-01,1.682734949999999952e-01,-5.951400000000000023e-01,3.967600000000000016e-01,1.983800000000000008e+00
8.948951699999999621e-01,4.575793949999999999e-01,1.682734949999999952e-01,-5.951400000000000023e-01,3.967600000000000016e-01,1.983800000000000008e+00
8.948951699999999621e-01,4.575793949999999999e-01,1.682734949999999952e-01,-5.951400000000000023e-01,3.967600000000000016e-01,1.983800000000000008e+00
8.948951699999999621e-01,4.575793949999999999e-01,1.682734949999999952e-01,-5.951400000000000023e-01,3.967600000000000016e-01,1.983800000000000008e+00
8.948951699999999621e-01,4.575793949999999999e-01,1.682734949999999952e-01,-5.951400000000000023e-01,3.967600000000000016e-01,1.983800000000000008e+00
8.973365700000000000e-01,4.494617399999999985e-01,1.679683200000000043e-01,1.831200000000000050e-01,4.196499999999999453e+00,-3.662400000000000100e-01
8.973365700000000000e-01,4.494617399999999985e-01,1.679683200000000043e-01,1.831200000000000050e-01,4.196499999999999453e+00,-3.662400000000000100e-01
8.973365700000000000e-01,4.494617399999999985e-01,1.679683200000000043e-01,1.831200000000000050e-01,4.196499999999999453e+00,-3.662400000000000100e-01
8.973365700000000000e-01,4.494617399999999985e-01,1.679683200000000043e-01,1.831200000000000050e-01,4.196499999999999453e+00,-3.662400000000000100e-01
8.973365700000000000e-01,4.494617399999999985e-01,1.679683200000000043e-01,1.831200000000000050e-01,4.196499999999999453e+00,-3.662400000000000100e-01
8.973365700000000000e-01,4.494617399999999985e-01,1.679683200000000043e-01,1.831200000000000050e-01,4.196499999999999453e+00,-3.662400000000000100e-01
8.973365700000000000e-01,4.494617399999999985e-01,1.679683200000000043e-01,1.831200000000000050e-01,4.196499999999999453e+00,-3.662400000000000100e-01
8.973365700000000000e-01,4.494617399999999985e-01,1.679683200000000043e-01,1.831200000000000050e-01,4.196499999999999453e+00,-3.662400000000000100e-01
8.973365700000000000e-01,4.494617399999999985e-01,1.679683200000000043e-01,1.831200000000000050e-01,4.196499999999999453e+00,-3.662400000000000100e-01
8.973365700000000000e-01,4.494617399999999985e-01,1.679683200000000043e-01,1.831200000000000050e-01,4.196499999999999453e+00,-3.662400000000000100e-01
8.952613799999999955e-01,4.484241449999999962e-01,1.718135249999999947e-01,1.083459999999999868e+00,4.669559999999999711e+00,-2.609459999999999891e+00
8.952613799999999955e-01,4.484241449999999962e-01,1.718135249999999947e-01,1.083459999999999868e+00,4.669559999999999711e+00,-2.609459999999999891e+00
8.952613799999999955e-01,4.484241449999999962e-01,1.718135249999999947e-01,1.083459999999999868e+00,4.669559999999999711e+00,-2.609459999999999891e+00
8.952613799999999955e-01,4.484241449999999962e-01,1.718135249999999947e-01,1.083459999999999868e+00,4.669559999999999711e+00,-2.609459999999999891e+00
8.952613799999999955e-01,4.484241449999999962e-01,1.718135249999999947e-01,1.083459999999999868e+00,4.669559999999999711e+00,-2.609459999999999891e+00
8.952613799999999955e-01,4.484241449999999962e-01,1.718135249999999947e-01,1.083459999999999868e+00,4.669559999999999711e+00,-2.609459999999999891e+00
8.952613799999999955e-01,4.484241449999999962e-01,1.718135249999999947e-01,1.083459999999999868e+00,4.669559999999999711e+00,-2.609459999999999891e+00
8.952613799999999955e-01,4.484241449999999962e-01,1.718135249999999947e-01,1.083459999999999868e+00,4.669559999999999711e+00,-2.609459999999999891e+00
8.952613799999999955e-01,4.484241449999999962e-01,1.718135249999999947e-01,1.083459999999999868e+00,4.669559999999999711e+00,-2.609459999999999891e+00
8.952613799999999955e-01,4.484241449999999962e-01,1.718135249999999947e-01,1.083459999999999868e+00,4.669559999999999711e+00,-2.609459999999999891e+00
8.919654900000000275e-01,4.562976599999999938e-01,1.755976949999999981e-01,-6.866999999999999771e-01,3.113039999999999807e+00,-2.929920000000000080e+00
8.919654900000000275e-01,4.562976599999999938e-01,1.755976949999999981e-01,-6.866999999999999771e-01,3.113039999999999807e+00,-2.929920000000000080e+00
8.919654900000000275e-01,4.562976599999999938e-01,1.755976949999999981e-01,-6.866999999999999771e-01,3.113039999999999807e+00,-2.929920000000000080e+00
8.919654900000000275e-01,4.562976599999999938e-01,1.755976949999999981e-01,-6.866999999999999771e-01,3.113039999999999807e+00,-2.929920000000000080e+00
8.919654900000000275e-01,4.562976599999999938e-01,1.755976949999999981e-01,-6.866999999999999771e-01,3.113039999999999807e+00,-2.929920000000000080e+00
8.919654900000000275e-01,4.562976599999999938e-01,1.755976949999999981e-01,-6.866999999999999771e-01,3.113039999999999807e+00,-2.929920000000000080e+00
8.919654900000000275e-01,4.562976599999999938e-01,1.755976949999999981e-01,-6.866999999999999771e-01,3.113039999999999807e+00,-2.929920000000000080e+00
8.919654900000000275e-01,4.562976599999999938e-01,1.755976949999999981e-01,-6.866999999999999771e-01,3.113039999999999807e+00,-2.929920000000000080e+00
8.919654900000000275e-01,4.562976599999999938e-01,1.755976949999999981e-01,-6.866999999999999771e-01,3.113039999999999807e+00,-2.929920000000000080e+00
8.919654900000000275e-01,4.562976599999999938e-01,1.755976949999999981e-01,-6.866999999999999771e-01,3.113039999999999807e+00,-2.929920000000000080e+00
8.892799500000000412e-01,4.630725450000000021e-01,1.792597949999999996e-01,-6.256599999999999939e-01,5.341000000000000192e-01,-1.220799999999999885e+00
8.892799500000000412e-01,4.630725450000000021e-01,1.792597949999999996e-01,-6.256599999999999939e-01,5.341000000000000192e-01,-1.220799999999999885e+00
8.892799500000000412e-01,4.630725450000000021e-01,1.792597949999999996e-01,-6.256599999999999939e-01,5.341000000000000192e-01,-1.220799999999999885e+00
8.892799500000000412e-01,4.630725450000000021e-01,1.792597949999999996e-01,-6.256599999999999939e-01,5.341000000000000192e-01,-1.220799999999999885e+00
8.892799500000000412e-01,4.630725450000000021e-01,1.792597949999999996e-01,-6.256599999999999939e-01,5.341000000000000192e-01,-1.220799999999999885e+00
8.892799500000000412e-01,4.630725450000000021e-01,1.792597949999999996e-01,-6.256599999999999939e-01,5.341000000000000192e-01,-1.220799999999999885e+00
8.892799500000000412e-01,4.630725450000000021e-01,1.792597949999999996e-01,-6.256599999999999939e-01,5.341000000000000192e-01,-1.220799999999999885e+00
8.892799500000000412e-01,4.630725450000000021e-01,1.792597949999999996e-01,-6.256599999999999939e-01,5.341000000000000192e-01,-1.220799999999999885e+00
8.892799500000000412e-01,4.630725450000000021e-01,1.792597949999999996e-01,-6.256599999999999939e-01,5.341000000000000192e-01,-1.220799999999999885e+00
8.892799500000000412e-01,4.630725450000000021e-01,1.792597949999999996e-01,-6.256599999999999939e-01,5.341000000000000192e-01,-1.220799999999999885e+00
8.888527050000000207e-01,4.634387549999999800e-01,1.803584249999999889e-01,3.967600000000000016e-01,-2.746799999999999797e-01,2.899399999999999755e-01
8.888527050000000207e-01,4.634387549999999800e-01,1.803584249999999889e-01,3.967600000000000016e-01,-2.746799999999999797e-01,2.899399999999999755e-01
8.888527050000000207e-01,4.634387549999999800e-01,1.803584249999999889e-01,3.967600000000000016e-01,-2.746799999999999797e-01,2.899399999999999755e-01
8.888527050000000207e-01,4.634387549999999800e-01,1.803584249999999889e-01,3.967600000000000016e-01,-2.746799999999999797e-01,2.899399999999999755e-01
8.888527050000000207e-01,4.634387549999999800e-01,1.803584249999999889e-01,3.967600000000000016e-01,-2.746799999999999797e-01,2.899399999999999755e-01
8.888527050000000207e-01,4.634387549999999800e-01,1.803584249999999889e-01,3.967600000000000016e-01,-2.746799999999999797e-01,2.899399999999999755e-01
8.888527050000000207e-01,4.634387549999999800e-01,1.803584249999999889e-01,3.967600000000000016e-01,-2.746799999999999797e-01,2.899399999999999755e-01
8.888527050000000207e-01,4.634387549999999800e-01,1.803584249999999889e-01,3.967600000000000016e-01,-2.746799999999999797e-01,2.899399999999999755e-01
8.888527050000000207e-01,4.634387549999999800e-01,1.803584249999999889e-01,3.967600000000000016e-01,-2.746799999999999797e-01,2.899399999999999755e-01
8.888527050000000207e-01,4.634387549999999800e-01,1.803584249999999889e-01,3.967600000000000016e-01,-2.746799999999999797e-01,2.899399999999999755e-01
8.897682300000000488e-01,4.602649349999999862e-01,1.793208300000000144e-01,1.525999999999999857e-01,-2.746799999999999797e-01,8.850799999999999779e-01
8.897682300000000488e-01,4.602649349999999862e-01,1.793208300000000144e-01,1.525999999999999857e-01,-2.746799999999999797e-01,8.850799999999999779e-01
8.897682300000000488e-01,4.602649349999999862e-01,1.793208300000000144e-01,1.525999999999999857e-01,-2.746799999999999797e-01,8.850799999999999779e-01
8.897682300000000488e-01,4.602649349999999862e-01,1.793208300000000144e-01,1.525999999999999857e-01,-2.746799999999999797e-01,8.850799999999999779e-01
8.897682300000000488e-01,4.602649349999999862e-01,1.793208300000000144e-01,1.525999999999999857e-01,-2.746799999999999797e-01,8.850799999999999779e-01
8.897682300000000488e-01,4.602649349999999862e-01,1.793208300000000144e-01,1.525999999999999857e-01,-2.746799999999999797e-01,8.850799999999999779e-01
8.897682300000000488e-01,4.602649349999999862e-01,1.793208300000000144e-01,1.525999999999999857e-01,-2.746799999999999797e-01,8.850799999999999779e-01
8.897682300000000488e-01,4.602649349999999862e-01,1.793208300000000144e-01,1.525999999999999857e-01,-2.746799999999999797e-01,8.850799999999999779e-01
8.897682300000000488e-01,4.602649349999999862e-01,1.793208300000000144e-01,1.525999999999999857e-01,-2.746799999999999797e-01,8.850799999999999779e-01
8.897682300000000488e-01,4.602649349999999862e-01,1.793208300000000144e-01,1.525999999999999857e-01,-2.746799999999999797e-01,8.850799999999999779e-01
8.908668600000000382e-01,4.584949200000000280e-01,1.804804949999999908e-01,1.159759999999999902e+00,-1.190280000000000005e+00,1.541259999999999852e+00
8.908668600000000382e-01,4.584949200000000280e-01,1.804804949999999908e-01,1.159759999999999902e+00,-1.190280000000000005e+00,1.541259999999999852e+00
8.908668600000000382e-01,4.584949200000000280e-01,1.804804949999999908e-01,1.159759999999999902e+00,-1.190280000000000005e+00,1.541259999999999852e+00
8.908668600000000382e-01,4.584949200000000280e-01,1.804804949999999908e-01,1.159759999999999902e+00,-1.190280000000000005e+00,1.541259999999999852e+00
8.908668600000000382e-01,4.584949200000000280e-01,1.804804949999999908e-01,1.159759999999999902e+00,-1.190280000000000005e+00,1.541259999999999852e+00
8.908668600000000382e-01,4.584949200000000280e-01,1.804804949999999908e-01,1.159759999999999902e+00,-1.190280000000000005e+00,1.541259999999999852e+00
8.908668600000000382e-01,4.584949200000000280e-01,1.804804949999999908e-01,1.159759999999999902e+00,-1.190280000000000005e+00,1.541259999999999852e+00
8.908668600000000382e-01,4.584949200000000280e-01,1.804804949999999908e-01,1.159759999999999902e+00,-1.190280000000000005e+00,1.541259999999999852e+00
8.908668600000000382e-01,4.584949200000000280e-01,1.804804949999999908e-01,1.159759999999999902e+00,-1.190280000000000005e+00,1.541259999999999852e+00
8.908668600000000382e-01,4.584949200000000280e-01,1.804804949999999908e-01,1.159759999999999902e+00,-1.190280000000000005e+00,1.541259999999999852e+00
8.909278950000000252e-01,4.598987250000000082e-01,1.821894749999999896e-01,1.510739999999999972e+00,-1.388660000000000005e+00,2.502639999999999976e+00
8.909278950000000252e-01,4.598987250000000082e-01,1.821894749999999896e-01,1.510739999999999972e+00,-1.388660000000000005e+00,2.502639999999999976e+00
8.909278950000000252e-01,4.598987250000000082e-01,1.821894749999999896e-01,1.510739999999999972e+00,-1.388660000000000005e+00,2.502639999999999976e+00
8.909278950000000252e-01,4.598987250000000082e-01,1.821894749999999896e-01,1.510739999999999972e+00,-1.388660000000000005e+00,2.502639999999999976e+00
8.909278950000000252e-01,4.598987250000000082e-01,1.821894749999999896e-01,1.510739999999999972e+00,-1.388660000000000005e+00,2.502639999999999976e+00
8.909278950000000252e-01,4.598987250000000082e-01,1.821894749999999896e-01,1.510739999999999972e+00,-1.388660000000000005e+00,2.502639999999999976e+00
8.909278950000000252e-01,4.598987250000000082e-01,1.821894749999999896e-01,1.510739999999999972e+00,-1.388660000000000005e+00,2.502639999999999976e+00
8.909278950000000252e-01,4.598987250000000082e-01,1.821894749999999896e-01,1.510739999999999972e+00,-1.388660000000000005e+00,2.502639999999999976e+00
8.909278950000000252e-01,4.598987250000000082e-01,1.821894749999999896e-01,1.510739999999999972e+00,-1.388660000000000005e+00,2.502639999999999976e+00
8.909278950000000252e-01,4.598987250000000082e-01,1.821894749999999896e-01,1.510739999999999972e+00,-1.388660000000000005e+00,2.502639999999999976e+00
8.897682300000000488e-01,4.624011600000000333e-01,1.788325500000000068e-01,1.495479999999999920e+00,-3.219859999999999722e+00,2.884139999999999926e+00
8.897682300000000488e-01,4.624011600000000333e-01,1.788325500000000068e-01,1.495479999999999920e+00,-3.219859999999999722e+00,2.884139999999999926e+00
8.897682300000000488e-01,4.624011600000000333e-01,1.788325500000000068e-01,1.495479999999999920e+00,-3.219859999999999722e+00,2.884139999999999926e+00
8.897682300000000488e-01,4.624011600000000333e-01,1.788325500000000068e-01,1.495479999999999920e+00,-3.219859999999999722e+00,2.884139999999999926e+00
8.897682300000000488e-01,4.624011600000000333e-01,1.788325500000000068e-01,1.495479999999999920e+00,-3.219859999999999722e+00,2.884139999999999926e+00
8.897682300000000488e-01,4.624011600000000333e-01,1.788325500000000068e-01,1.495479999999999920e+00,-3.219859999999999722e+00,2.884139999999999926e+00
8.897682300000000488e-01,4.624011600000000333e-01,1.788325500000000068e-01,1.495479999999999920e+00,-3.219859999999999722e+00,2.884139999999999926e+00
8.897682300000000488e-01,4.624011600000000333e-01,1.788325500000000068e-01,1.495479999999999920e+00,-3.219859999999999722e+00,2.884139999999999926e+00
8.897682300000000488e-01,4.624011600000000333e-01,1.788325500000000068e-01,1.495479999999999920e+00,-3.219859999999999722e+00,2.884139999999999926e+00
8.897682300000000488e-01,4.624011600000000333e-01,1.788325500000000068e-01,1.495479999999999920e+00,-3.219859999999999722e+00,2.884139999999999926e+00
8.927589449999999704e-01,4.626452999999999816e-01,1.720576649999999985e-01,7.019599999999999174e-01,-2.517900000000000027e+00,4.700079999999999814e+00
8.927589449999999704e-01,4.626452999999999816e-01,1.720576649999999985e-01,7.019599999999999174e-01,-2.517900000000000027e+00,4.700079999999999814e+00
8.927589449999999704e-01,4.626452999999999816e-01,1.720576649999999985e-01,7.019599999999999174e-01,-2.517900000000000027e+00,4.700079999999999814e+00
8.927589449999999704e-01,4.626452999999999816e-01,1.720576649999999985e-01,7.019599999999999174e-01,-2.517900000000000027e+00,4.700079999999999814e+00
8.927589449999999704e-01,4.626452999999999816e-01,1.720576649999999985e-01,7.019599999999999174e-01,-2.517900000000000027e+00,4.700079999999999814e+00
8.927589449999999704e-01,4.626452999999999816e-01,1.720576649999999985e-01,7.019599999999999174e-01,-2.517900000000000027e+00,4.700079999999999814e+00
8.927589449999999704e-01,4.626452999999999816e-01,1.720576649999999985e-01,7.019599999999999174e-01,-2.517900000000000027e+00,4.700079999999999814e+00
8.927589449999999704e-01,4.626452999999999816e-01,1.720576649999999985e-01,7.019599999999999174e-01,-2.517900000000000027e+00,4.700079999999999814e+00
8.927589449999999704e-01,4.626452999999999816e-01,1.720576649999999985e-01,7.019599999999999174e-01,-2.517900000000000027e+00,4.700079999999999814e+00
8.927589449999999704e-01,4.626452999999999816e-01,1.720576649999999985e-01,7.019599999999999174e-01,-2.517900000000000027e+00,4.700079999999999814e+00
8.941017150000000191e-01,4.550159249999999878e-01,1.663203749999999925e-01,1.220799999999999941e-01,-2.319519999999999804e+00,3.387719999999999843e+00
8.941017150000000191e-01,4.550159249999999878e-01,1.663203749999999925e-01,1.220799999999999941e-01,-2.319519999999999804e+00,3.387719999999999843e+00
8.941017150000000191e-01,4.550159249999999878e-01,1.663203749999999925e-01,1.220799999999999941e-01,-2.319519999999999804e+00,3.387719999999999843e+00
8.941017150000000191e-01,4.550159249999999878e-01,1.663203749999999925e-01,1.220799999999999941e-01,-2.319519999999999804e+00,3.387719999999999843e+00
8.941017150000000191e-01,4.550159249999999878e-01,1.663203749999999925e-01,1.220799999999999941e-01,-2.319519999999999804e+00,3.387719999999999843e+00
8.941017150000000191e-01,4.550159249999999878e-01,1.663203749999999925e-01,1.220799999999999941e-01,-2.319519999999999804e+00,3.387719999999999843e+00
8.941017150000000191e-01,4.550159249999999878e-01,1.663203749999999925e-01,1.220799999999999941e-01,-2.319519999999999804e+00,3.387719999999999843e+00
8.941017150000000191e-01,4.550159249999999878e-01,1.663203749999999925e-01,1.220799999999999941e-01,-2.319519999999999804e+00,3.387719999999999843e+00
8.941017150000000191e-01,4.550159249999999878e-01,1.663203749999999925e-01,1.220799999999999941e-01,-2.319519999999999804e+00,3.387719999999999843e+00
8.941017150000000191e-01,4.550159249999999878e-01,1.663203749999999925e-01,1.220799999999999941e-01,-2.319519999999999804e+00,3.387719999999999843e+00
8.975807100000000593e-01,4.474475849999999810e-01,1.655879550000000089e-01,2.136399999999999966e-01,8.087799999999999434e-01,1.175019999999999953e+00
8.975807100000000593e-01,4.474475849999999810e-01,1.655879550000000089e-01,2.136399999999999966e-01,8.087799999999999434e-01,1.175019999999999953e+00
8.975807100000000593e-01,4.474475849999999810e-01,1.655879550000000089e-01,2.136399999999999966e-01,8.087799999999999434e-01,1.175019999999999953e+00
8.975807100000000593e-01,4.474475849999999810e-01,1.655879550000000089e-01,2.136399999999999966e-01,8.087799999999999434e-01,1.175019999999999953e+00
8.975807100000000593e-01,4.474475849999999810e-01,1.655879550000000089e-01,2.136399999999999966e-01,8.087799999999999434e-01,1.175019999999999953e+00
8.975807100000000593e-01,4.474475849999999810e-01,1.655879550000000089e-01,2.136399999999999966e-01,8.087799999999999434e-01,1.175019999999999953e+00
8.975807100000000593e-01,4.474475849999999810e-01,1.655879550000000089e-01,2.136399999999999966e-01,8.087799999999999434e-01,1.175019999999999953e+00
8.975807100000000593e-01,4.474475849999999810e-01,1.655879550000000089e-01,2.136399999999999966e-01,8.087799999999999434e-01,1.175019999999999953e+00
8.975807100000000593e-01,4.474475849999999810e-01,1.655879550000000089e-01,2.136399999999999966e-01,8.087799999999999434e-01,1.175019999999999953e+00
8.975807100000000593e-01,4.474475849999999810e-01,1.655879550000000089e-01,2.136399999999999966e-01,8.087799999999999434e-01,1.175019999999999953e+00
8.965431150000000571e-01,4.470813750000000031e-01,1.694331599999999993e-01,-3.357199999999999629e-01,1.739639999999999853e+00,-1.358139999999999903e+00
8.965431150000000571e-01,4.470813750000000031e-01,1.694331599999999993e-01,-3.357199999999999629e-01,1.739639999999999853e+00,-1.358139999999999903e+00
8.965431150000000571e-01,4.470813750000000031e-01,1.694331599999999993e-01,-3.357199999999999629e-01,1.739639999999999853e+00,-1.358139999999999903e+00
8.965431150000000571e-01,4.470813750000000031e-01,1.694331599999999993e-01,-3.357199999999999629e-01,1.739639999999999853e+00,-1.358139999999999903e+00
8.965431150000000571e-01,4.470813750000000031e-01,1.694331599999999993e-01,-3.357199999999999629e-01,1.739639999999999853e+00,-1.358139999999999903e+00
8.965431150000000571e-01,4.470813750000000031e-01,1.694331599999999993e-01,-3.357199999999999629e-01,1.739639999999999853e+00,-1.358139999999999903e+00
8.965431150000000571e-01,4.470813750000000031e-01,1.694331599999999993e-01,-3.357199999999999629e-01,1.739639999999999853e+00,-1.358139999999999903e+00
8.965431150000000571e-01,4.470813750000000031e-01,1.694331599999999993e-01,-3.357199999999999629e-01,1.739639999999999853e+00,-1.358139999999999903e+00
8.965431150000000571e-01,4.470813750000000031e-01,1.694331599999999993e-01,-3.357199999999999629e-01,1.739639999999999853e+00,-1.358139999999999903e+00
8.965431150000000571e-01,4.470813750000000031e-01,1.694331599999999993e-01,-3.357199999999999629e-01,1.739639999999999853e+00,-1.358139999999999903e+00
8.937965399999999727e-01,4.535510850000000205e-01,1.726069799999999932e-01,-4.730599999999999805e-01,1.052939999999999987e+00,-2.701019999999999754e+00
8.937965399999999727e-01,4.535510850000000205e-01,1.726069799999999932e-01,-4.730599999999999805e-01,1.052939999999999987e+00,-2.701019999999999754e+00
8.937965399999999727e-01,4.535510850000000205e-01,1.726069799999999932e-01,-4.730599999999999805e-01,1.052939999999999987e+00,-2.701019999999999754e+00
8.937965399999999727e-01,4.535510850000000205e-01,1.726069799999999932e-01,-4.730599999999999805e-01,1.052939999999999987e+00,-2.701019999999999754e+00
8.937965399999999727e-01,4.535510850000000205e-01,1.726069799999999932e-01,-4.730599999999999805e-01,1.052939999999999987e+00,-2.701019999999999754e+00
8.937965399999999727e-01,4.535510850000000205e-01,1.726069799999999932e-01,-4.730599999999999805e-01,1.052939999999999987e+00,-2.701019999999999754e+00
8.937965399999999727e-01,4.535510850000000205e-01,1.726069799999999932e-01,-4.730599999999999805e-01,1.052939999999999987e+00,-2.701019999999999754e+00
8.937965399999999727e-01,4.535510850000000205e-01,1.726069799999999932e-01,-4.730599999999999805e-01,1.052939999999999987e+00,-2.701019999999999754e+00
8.937965399999999727e-01,4.535510850000000205e-01,1.726069799999999932e-01,-4.730599999999999805e-01,1.052939999999999987e+00,-2.701019999999999754e+00
8.937965399999999727e-01,4.535510850000000205e-01,1.726069799999999932e-01,-4.730599999999999805e-01,1.052939999999999987e+00,-2.701019999999999754e+00
8.928199800000000685e-01,4.587390600000000318e-01,1.724849099999999913e-01,-3.815000000000000058e-01,9.766399999999999526e-01,-1.526000000000000023e+00
8.928199800000000685e-01,4.587390600000000318e-01,1.724849099999999913e-01,-3.815000000000000058e-01,9.766399999999999526e-01,-1.526000000000000023e+00
8.928199800000000685e-01,4.587390600000000318e-01,1.724849099999999913e-01,-3.815000000000000058e-01,9.766399999999999526e-01,-1.526000000000000023e+00
8.928199800000000685e-01,4.587390600000000318e-01,1.724849099999999913e-01,-3.815000000000000058e-01,9.766399999999999526e-01,-1.526000000000000023e+00
8.928199800000000685e-01,4.587390600000000318e-01,1.724849099999999913e-01,-3.815000000000000058e-01,9.766399999999999526e-01,-1.526000000000000023e+00
8.928199800000000685e-01,4.587390600000000318e-01,1.724849099999999913e-01,-3.815000000000000058e-01,9.766399999999999526e-01,-1.526000000000000023e+00
8.928199800000000685e-01,4.587390600000000318e-01,1.724849099999999913e-01,-3.815000000000000058e-01,9.766399999999999526e-01,-1.526000000000000023e+00
8.928199800000000685e-01,4.587390600000000318e-01,1.724849099999999913e-01,-3.815000000000000058e-01,9.766399999999999526e-01,-1.526000000000000023e+00
8.928199800000000685e-01,4.587390600000000318e-01,1.724849099999999913e-01,-3.815000000000000058e-01,9.766399999999999526e-01,-1.526000000000000023e+00
8.928199800000000685e-01,4.587390600000000318e-01,1.724849099999999913e-01,-3.815000000000000058e-01,9.766399999999999526e-01,-1.526000000000000023e+00
8.933692950000000632e-01,4.591052700000000097e-01,1.719966300000000115e-01,-1.999059999999999837e+00,-6.561799999999999855e-01,-1.693859999999999921e+00
8.933692950000000632e-01,4.591052700000000097e-01,1.719966300000000115e-01,-1.999059999999999837e+00,-6.561799999999999855e-01,-1.693859999999999921e+00
8.933692950000000632e-01,4.591052700000000097e-01,1.719966300000000115e-01,-1.999059999999999837e+00,-6.561799999999999855e-01,-1.693859999999999921e+00
8.933692950000000632e-01,4.591052700000000097e-01,1.719966300000000115e-01,-1.999059999999999837e+00,-6.561799999999999855e-01,-1.693859999999999921e+00
8.933692950000000632e-01,4.591052700000000097e-01,1.719966300000000115e-01,-1.999059999999999837e+00,-6.561799999999999855e-01,-1.693859999999999921e+00
8.933692950000000632e-01,4.591052700000000097e-01,1.719966300000000115e-01,-1.999059999999999837e+00,-6.561799999999999855e-01,-1.693859999999999921e+00
8.933692950000000632e-01,4.591052700000000097e-01,1.719966300000000115e-01,-1.999059999999999837e+00,-6.561799999999999855e-01,-1.693859999999999921e+00
8.933692950000000632e-01,4.591052700000000097e-01,1.719966300000000115e-01,-1.999059999999999837e+00,-6.561799999999999855e-01,-1.693859999999999921e+00
8.933692950000000632e-01,4.591052700000000097e-01,1.719966300000000115e-01,-1.999059999999999837e+00,-6.561799999999999855e-01,-1.693859999999999921e+00
8.933692950000000632e-01,4.591052700000000097e-01,1.719966300000000115e-01,-1.999059999999999837e+00,-6.561799999999999855e-01,-1.693859999999999921e+00
8.930030850000000298e-01,4.555042049999999954e-01,1.720576649999999985e-01,-1.632819999999999938e+00,2.899399999999999755e-01,-1.464960000000000040e+00
8.930030850000000298e-01,4.555042049999999954e-01,1.720576649999999985e-01,-1.632819999999999938e+00,2.899399999999999755e-01,-1.464960000000000040e+00
8.930030850000000298e-01,4.555042049999999954e-01,1.720576649999999985e-01,-1.632819999999999938e+00,2.899399999999999755e-01,-1.464960000000000040e+00
8.930030850000000298e-01,4.555042049999999954e-01,1.720576649999999985e-01,-1.632819999999999938e+00,2.899399999999999755e-01,-1.464960000000000040e+00
8.930030850000000298e-01,4.555042049999999954e-01,1.720576649999999985e-01,-1.632819999999999938e+00,2.899399999999999755e-01,-1.464960000000000040e+00
8.930030850000000298e-01,4.555042049999999954e-01,1.720576649999999985e-01,-1.632819999999999938e+00,2.899399999999999755e-01,-1.464960000000000040e+00
8.930030850000000298e-01,4.555042049999999954e-01,1.720576649999999985e-01,-1.632819999999999938e+00,2.899399999999999755e-01,-1.464960000000000040e+00
8.930030850000000298e-01,4.555042049999999954e-01,1.720576649999999985e-01,-1.632819999999999938e+00,2.899399999999999755e-01,-1.464960000000000040e+00
8.930030850000000298e-01,4.555042049999999954e-01,1.720576649999999985e-01,-1.632819999999999938e+00,2.899399999999999755e-01,-1.464960000000000040e+00
8.930030850000000298e-01,4.555042049999999954e-01,1.720576649999999985e-01,-1.632819999999999938e+00,2.899399999999999755e-01,-1.464960000000000040e+00
8.937965399999999727e-01,4.536121200000000075e-01,1.744380299999999939e-01,1.525999999999999926e-02,5.035800000000000276e-01,-6.561799999999999855e-01
8.937965399999999727e-01,4.536121200000000075e-01,1.744380299999999939e-01,1.525999999999999926e-02,5.035800000000000276e-01,-6.561799999999999855e-01
8.937965399999999727e-01,4.536121200000000075e-01,1.744380299999999939e-01,1.525999999999999926e-02,5.035800000000000276e-01,-6.561799999999999855e-01
8.937965399999999727e-01,4.536121200000000075e-01,1.744380299999999939e-01,1.525999999999999926e-02,5.035800000000000276e-01,-6.561799999999999855e-01
8.937965399999999727e-01,4.536121200000000075e-01,1.744380299999999939e-01,1.525999999999999926e-02,5.035800000000000276e-01,-6.561799999999999855e-01
8.937965399999999727e-01,4.536121200000000075e-01,1.744380299999999939e-01,1.525999999999999926e-02,5.035800000000000276e-01,-6.561799999999999855e-01
8.937965399999999727e-01,4.536121200000000075e-01,1.744380299999999939e-01,1.525999999999999926e-02,5.035800000000000276e-01,-6.561799999999999855e-01
8.937965399999999727e-01,4.536121200000000075e-01,1.744380299999999939e-01,1.525999999999999926e-02,5.035800000000000276e-01,-6.561799999999999855e-01
8.937965399999999727e-01,4.536121200000000075e-01,1.744380299999999939e-01,1.525999999999999926e-02,5.035800000000000276e-01,-6.561799999999999855e-01
8.937965399999999727e-01,4.536121200000000075e-01,1.744380299999999939e-01,1.525999999999999926e-02,5.035800000000000276e-01,-6.561799999999999855e-01
8.922706649999999629e-01,4.558093799999999862e-01,1.765742550000000133e-01,5.951400000000000023e-01,1.632819999999999938e+00,6.714399999999999258e-01
8.922706649999999629e-01,4.558093799999999862e-01,1.765742550000000133e-01,5.951400000000000023e-01,1.632819999999999938e+00,6.714399999999999258e-01
8.922706649999999629e-01,4.558093799999999862e-01,1.765742550000000133e-01,5.951400000000000023e-01,1.632819999999999938e+00,6.714399999999999258e-01
8.922706649999999629e-01,4.558093799999999862e-01,1.765742550000000133e-01,5.951400000000000023e-01,1.632819999999999938e+00,6.714399999999999258e-01
8.922706649999999629e-01,4.558093799999999862e-01,1.765742550000000133e-01,5.951400000000000023e-01,1.632819999999999938e+00,6.714399999999999258e-01
8.922706649999999629e-01,4.558093799999999862e-01,1.765742550000000133e-01,5.951400000000000023e-01,1.632819999999999938e+00,6.714399999999999258e-01
8.922706649999999629e-01,4.558093799999999862e-01,1.765742550000000133e-01,5.951400000000000023e-01,1.632819999999999938e+00,6.714399999999999258e-01
8.922706649999999629e-01,4.558093799999999862e-01,1.765742550000000133e-01,5.951400000000000023e-01,1.632819999999999938e+00,6.714399999999999258e-01
8.922706649999999629e-01,4.558093799999999862e-01,1.765742550000000133e-01,5.951400000000000023e-01,1.632819999999999938e+00,6.714399999999999258e-01
8.922706649999999629e-01,4.558093799999999862e-01,1.765742550000000133e-01,5.951400000000000023e-01,1.632819999999999938e+00,6.714399999999999258e-01
